LabVIEW Measurement	
Writer_Version	2
Reader_Version	2
Separator	Tab
Decimal_Separator	.
Multi_Headings	Yes
X_Columns	One
Time_Pref	Absolute
Operator	labuser
Date	1904/01/01
Time	01:00:00.
***End_of_Header***	
	
Channels	1	
Samples	10000	
Date	2019/05/16	
Time	10:06:06.1186693999999387085	
Y_Unit_Label	Volts	
X_Dimension	Time	
X0	0.0000000000000000E+0	
Delta_X	0.000500	
***End_of_Header***		
X_Value	Voltage	Comment
0.000000	1.750776
0.000500	1.751413
0.001000	1.752050
0.001500	1.752369
0.002000	1.751413
0.002500	1.751413
0.003000	1.751413
0.003500	1.751732
0.004000	1.752369
0.004500	1.750458
0.005000	1.751095
0.005500	1.752050
0.006000	1.752050
0.006500	1.751732
0.007000	1.751732
0.007500	1.751732
0.008000	1.752369
0.008500	1.751732
0.009000	1.751095
0.009500	1.750776
0.010000	1.751732
0.010500	1.751095
0.011000	1.751095
0.011500	1.751413
0.012000	1.751413
0.012500	1.752050
0.013000	1.751732
0.013500	1.750458
0.014000	1.752050
0.014500	1.751413
0.015000	1.751095
0.015500	1.752050
0.016000	1.751413
0.016500	1.750776
0.017000	1.752050
0.017500	1.751095
0.018000	1.750458
0.018500	1.751095
0.019000	1.751413
0.019500	1.751413
0.020000	1.752050
0.020500	1.751413
0.021000	1.751413
0.021500	1.751732
0.022000	1.751413
0.022500	1.751413
0.023000	1.752050
0.023500	1.751732
0.024000	1.752050
0.024500	1.751732
0.025000	1.751095
0.025500	1.750776
0.026000	1.751413
0.026500	1.750458
0.027000	1.751732
0.027500	1.750776
0.028000	1.750776
0.028500	1.751095
0.029000	1.751732
0.029500	1.750458
0.030000	1.751413
0.030500	1.752050
0.031000	1.750776
0.031500	1.751413
0.032000	1.751413
0.032500	1.751413
0.033000	1.752369
0.033500	1.751095
0.034000	1.749821
0.034500	1.750776
0.035000	1.752050
0.035500	1.751413
0.036000	1.751732
0.036500	1.750776
0.037000	1.751413
0.037500	1.751732
0.038000	1.751095
0.038500	1.750139
0.039000	1.750776
0.039500	1.751732
0.040000	1.750776
0.040500	1.752050
0.041000	1.750776
0.041500	1.752050
0.042000	1.752050
0.042500	1.751413
0.043000	1.750776
0.043500	1.752050
0.044000	1.751413
0.044500	1.752050
0.045000	1.752050
0.045500	1.750776
0.046000	1.752050
0.046500	1.751732
0.047000	1.750776
0.047500	1.751413
0.048000	1.751732
0.048500	1.750458
0.049000	1.751095
0.049500	1.751413
0.050000	1.751095
0.050500	1.751413
0.051000	1.751732
0.051500	1.751095
0.052000	1.751732
0.052500	1.750776
0.053000	1.750776
0.053500	1.750458
0.054000	1.751413
0.054500	1.749821
0.055000	1.751413
0.055500	1.751732
0.056000	1.751732
0.056500	1.751413
0.057000	1.751413
0.057500	1.751095
0.058000	1.751413
0.058500	1.751413
0.059000	1.750776
0.059500	1.750776
0.060000	1.751413
0.060500	1.751413
0.061000	1.751413
0.061500	1.749821
0.062000	1.750776
0.062500	1.751732
0.063000	1.751095
0.063500	1.750458
0.064000	1.751413
0.064500	1.751413
0.065000	1.751413
0.065500	1.751095
0.066000	1.750458
0.066500	1.751413
0.067000	1.752050
0.067500	1.750139
0.068000	1.750139
0.068500	1.751732
0.069000	1.752050
0.069500	1.751095
0.070000	1.751732
0.070500	1.750776
0.071000	1.751732
0.071500	1.752050
0.072000	1.751095
0.072500	1.750776
0.073000	1.751732
0.073500	1.751095
0.074000	1.751095
0.074500	1.750776
0.075000	1.750776
0.075500	1.751095
0.076000	1.752050
0.076500	1.751095
0.077000	1.750776
0.077500	1.751095
0.078000	1.749821
0.078500	1.751413
0.079000	1.751413
0.079500	1.750776
0.080000	1.750776
0.080500	1.750776
0.081000	1.750776
0.081500	1.751732
0.082000	1.750776
0.082500	1.750139
0.083000	1.751095
0.083500	1.750776
0.084000	1.750139
0.084500	1.750776
0.085000	1.750776
0.085500	1.750776
0.086000	1.751413
0.086500	1.750776
0.087000	1.750776
0.087500	1.751732
0.088000	1.750776
0.088500	1.750458
0.089000	1.750776
0.089500	1.750776
0.090000	1.750776
0.090500	1.751732
0.091000	1.751095
0.091500	1.750776
0.092000	1.752687
0.092500	1.750776
0.093000	1.750458
0.093500	1.751413
0.094000	1.751413
0.094500	1.751413
0.095000	1.751095
0.095500	1.752050
0.096000	1.751095
0.096500	1.751413
0.097000	1.750458
0.097500	1.751413
0.098000	1.750458
0.098500	1.750776
0.099000	1.751413
0.099500	1.751413
0.100000	1.750458
0.100500	1.751413
0.101000	1.752050
0.101500	1.751413
0.102000	1.751413
0.102500	1.752050
0.103000	1.751095
0.103500	1.751413
0.104000	1.751732
0.104500	1.751095
0.105000	1.751413
0.105500	1.751413
0.106000	1.751732
0.106500	1.751095
0.107000	1.751413
0.107500	1.750458
0.108000	1.751413
0.108500	1.751095
0.109000	1.751413
0.109500	1.751413
0.110000	1.751413
0.110500	1.750776
0.111000	1.751732
0.111500	1.751095
0.112000	1.750776
0.112500	1.752050
0.113000	1.750776
0.113500	1.751095
0.114000	1.751413
0.114500	1.751095
0.115000	1.751732
0.115500	1.752050
0.116000	1.750458
0.116500	1.750776
0.117000	1.751413
0.117500	1.751413
0.118000	1.750776
0.118500	1.751413
0.119000	1.750776
0.119500	1.752050
0.120000	1.751732
0.120500	1.750139
0.121000	1.751095
0.121500	1.752050
0.122000	1.752050
0.122500	1.750776
0.123000	1.751413
0.123500	1.751732
0.124000	1.752687
0.124500	1.751095
0.125000	1.749502
0.125500	1.751413
0.126000	1.751095
0.126500	1.750458
0.127000	1.751413
0.127500	1.750458
0.128000	1.750776
0.128500	1.751732
0.129000	1.750776
0.129500	1.750139
0.130000	1.751095
0.130500	1.750458
0.131000	1.750776
0.131500	1.750776
0.132000	1.750776
0.132500	1.750458
0.133000	1.751732
0.133500	1.750139
0.134000	1.750776
0.134500	1.751413
0.135000	1.750139
0.135500	1.750458
0.136000	1.750776
0.136500	1.749821
0.137000	1.750776
0.137500	1.751732
0.138000	1.751095
0.138500	1.750776
0.139000	1.750458
0.139500	1.750458
0.140000	1.750776
0.140500	1.751095
0.141000	1.749184
0.141500	1.751095
0.142000	1.750139
0.142500	1.750139
0.143000	1.749821
0.143500	1.750458
0.144000	1.750458
0.144500	1.751095
0.145000	1.750139
0.145500	1.749184
0.146000	1.750458
0.146500	1.750776
0.147000	1.750776
0.147500	1.751095
0.148000	1.749502
0.148500	1.749821
0.149000	1.751413
0.149500	1.750458
0.150000	1.749502
0.150500	1.750139
0.151000	1.750458
0.151500	1.750458
0.152000	1.749821
0.152500	1.749502
0.153000	1.750776
0.153500	1.751413
0.154000	1.750458
0.154500	1.750458
0.155000	1.750776
0.155500	1.750776
0.156000	1.750776
0.156500	1.750776
0.157000	1.749821
0.157500	1.750458
0.158000	1.750776
0.158500	1.749821
0.159000	1.750776
0.159500	1.750458
0.160000	1.749821
0.160500	1.750458
0.161000	1.751095
0.161500	1.749821
0.162000	1.751095
0.162500	1.750776
0.163000	1.750458
0.163500	1.750776
0.164000	1.750139
0.164500	1.750458
0.165000	1.751413
0.165500	1.750458
0.166000	1.750776
0.166500	1.750458
0.167000	1.750776
0.167500	1.751413
0.168000	1.751732
0.168500	1.749821
0.169000	1.750139
0.169500	1.751413
0.170000	1.750458
0.170500	1.750776
0.171000	1.751413
0.171500	1.750139
0.172000	1.750776
0.172500	1.751413
0.173000	1.750458
0.173500	1.750458
0.174000	1.752050
0.174500	1.750776
0.175000	1.750458
0.175500	1.749821
0.176000	1.750776
0.176500	1.751413
0.177000	1.751095
0.177500	1.749502
0.178000	1.751095
0.178500	1.752050
0.179000	1.750776
0.179500	1.751095
0.180000	1.751413
0.180500	1.750458
0.181000	1.751095
0.181500	1.750776
0.182000	1.750458
0.182500	1.752050
0.183000	1.751413
0.183500	1.750458
0.184000	1.751732
0.184500	1.750776
0.185000	1.750776
0.185500	1.751095
0.186000	1.750776
0.186500	1.749821
0.187000	1.751095
0.187500	1.750139
0.188000	1.751413
0.188500	1.751413
0.189000	1.750139
0.189500	1.751095
0.190000	1.751095
0.190500	1.750776
0.191000	1.751413
0.191500	1.751095
0.192000	1.750776
0.192500	1.751732
0.193000	1.751413
0.193500	1.750458
0.194000	1.750139
0.194500	1.752050
0.195000	1.751095
0.195500	1.750458
0.196000	1.750139
0.196500	1.749821
0.197000	1.751095
0.197500	1.751413
0.198000	1.750139
0.198500	1.751095
0.199000	1.751095
0.199500	1.751413
0.200000	1.751095
0.200500	1.750458
0.201000	1.750776
0.201500	1.752050
0.202000	1.750776
0.202500	1.750776
0.203000	1.751095
0.203500	1.751413
0.204000	1.751095
0.204500	1.750776
0.205000	1.749502
0.205500	1.750776
0.206000	1.751732
0.206500	1.750776
0.207000	1.750139
0.207500	1.751413
0.208000	1.750458
0.208500	1.750776
0.209000	1.751095
0.209500	1.750776
0.210000	1.750776
0.210500	1.750776
0.211000	1.750139
0.211500	1.750458
0.212000	1.751413
0.212500	1.750458
0.213000	1.750458
0.213500	1.751413
0.214000	1.749821
0.214500	1.750776
0.215000	1.751413
0.215500	1.750458
0.216000	1.750776
0.216500	1.751095
0.217000	1.750139
0.217500	1.751095
0.218000	1.751095
0.218500	1.750458
0.219000	1.751095
0.219500	1.750458
0.220000	1.751095
0.220500	1.752050
0.221000	1.750139
0.221500	1.750458
0.222000	1.751095
0.222500	1.751732
0.223000	1.749821
0.223500	1.750776
0.224000	1.751095
0.224500	1.750776
0.225000	1.751095
0.225500	1.750776
0.226000	1.750458
0.226500	1.751732
0.227000	1.750776
0.227500	1.749821
0.228000	1.750458
0.228500	1.751413
0.229000	1.751095
0.229500	1.751095
0.230000	1.750139
0.230500	1.750776
0.231000	1.752050
0.231500	1.750776
0.232000	1.751413
0.232500	1.750776
0.233000	1.750776
0.233500	1.750776
0.234000	1.752050
0.234500	1.750458
0.235000	1.751732
0.235500	1.751413
0.236000	1.750776
0.236500	1.751095
0.237000	1.752050
0.237500	1.751732
0.238000	1.751732
0.238500	1.751413
0.239000	1.750458
0.239500	1.752050
0.240000	1.752050
0.240500	1.751732
0.241000	1.751413
0.241500	1.751095
0.242000	1.750776
0.242500	1.752050
0.243000	1.751413
0.243500	1.750776
0.244000	1.751413
0.244500	1.751095
0.245000	1.751732
0.245500	1.751732
0.246000	1.751095
0.246500	1.750776
0.247000	1.751732
0.247500	1.751413
0.248000	1.751413
0.248500	1.751095
0.249000	1.751095
0.249500	1.752687
0.250000	1.752050
0.250500	1.750458
0.251000	1.751095
0.251500	1.751413
0.252000	1.752050
0.252500	1.751413
0.253000	1.750776
0.253500	1.752050
0.254000	1.752050
0.254500	1.751732
0.255000	1.750458
0.255500	1.751095
0.256000	1.751413
0.256500	1.750776
0.257000	1.751095
0.257500	1.750458
0.258000	1.750776
0.258500	1.751732
0.259000	1.750776
0.259500	1.750139
0.260000	1.750458
0.260500	1.751732
0.261000	1.750139
0.261500	1.751732
0.262000	1.751413
0.262500	1.750776
0.263000	1.752050
0.263500	1.750776
0.264000	1.750458
0.264500	1.750776
0.265000	1.750776
0.265500	1.749821
0.266000	1.750776
0.266500	1.750776
0.267000	1.750776
0.267500	1.750776
0.268000	1.750458
0.268500	1.750458
0.269000	1.751732
0.269500	1.750458
0.270000	1.750776
0.270500	1.751095
0.271000	1.750139
0.271500	1.751413
0.272000	1.751732
0.272500	1.750139
0.273000	1.751095
0.273500	1.751413
0.274000	1.750776
0.274500	1.751095
0.275000	1.750776
0.275500	1.750139
0.276000	1.750776
0.276500	1.751732
0.277000	1.751095
0.277500	1.751095
0.278000	1.750776
0.278500	1.750139
0.279000	1.751095
0.279500	1.751732
0.280000	1.750458
0.280500	1.750776
0.281000	1.751413
0.281500	1.751732
0.282000	1.751095
0.282500	1.750458
0.283000	1.750139
0.283500	1.751732
0.284000	1.750776
0.284500	1.749502
0.285000	1.750458
0.285500	1.750776
0.286000	1.751095
0.286500	1.751095
0.287000	1.749821
0.287500	1.750458
0.288000	1.752050
0.288500	1.750458
0.289000	1.749821
0.289500	1.750776
0.290000	1.749821
0.290500	1.751413
0.291000	1.750776
0.291500	1.749821
0.292000	1.751413
0.292500	1.751413
0.293000	1.750458
0.293500	1.750458
0.294000	1.751095
0.294500	1.751095
0.295000	1.750776
0.295500	1.750776
0.296000	1.749821
0.296500	1.750776
0.297000	1.750776
0.297500	1.750776
0.298000	1.750776
0.298500	1.750458
0.299000	1.750458
0.299500	1.750776
0.300000	1.750776
0.300500	1.751095
0.301000	1.751095
0.301500	1.750458
0.302000	1.750776
0.302500	1.751413
0.303000	1.749502
0.303500	1.750458
0.304000	1.751413
0.304500	1.751095
0.305000	1.750776
0.305500	1.750139
0.306000	1.750458
0.306500	1.750776
0.307000	1.750776
0.307500	1.750458
0.308000	1.750139
0.308500	1.751732
0.309000	1.750776
0.309500	1.750139
0.310000	1.750776
0.310500	1.750139
0.311000	1.750776
0.311500	1.750458
0.312000	1.750458
0.312500	1.750458
0.313000	1.751413
0.313500	1.750139
0.314000	1.751095
0.314500	1.749821
0.315000	1.749821
0.315500	1.751413
0.316000	1.750139
0.316500	1.749502
0.317000	1.750458
0.317500	1.750458
0.318000	1.750458
0.318500	1.750458
0.319000	1.749502
0.319500	1.750458
0.320000	1.751413
0.320500	1.750139
0.321000	1.750776
0.321500	1.750458
0.322000	1.750458
0.322500	1.750776
0.323000	1.750776
0.323500	1.750458
0.324000	1.749502
0.324500	1.750776
0.325000	1.750139
0.325500	1.749821
0.326000	1.750139
0.326500	1.749502
0.327000	1.750458
0.327500	1.750776
0.328000	1.749821
0.328500	1.750776
0.329000	1.750776
0.329500	1.751095
0.330000	1.750458
0.330500	1.749502
0.331000	1.749821
0.331500	1.749821
0.332000	1.750776
0.332500	1.749821
0.333000	1.749502
0.333500	1.749821
0.334000	1.750458
0.334500	1.750776
0.335000	1.749502
0.335500	1.749502
0.336000	1.750776
0.336500	1.751413
0.337000	1.748866
0.337500	1.750458
0.338000	1.750139
0.338500	1.750139
0.339000	1.750776
0.339500	1.750458
0.340000	1.750458
0.340500	1.751413
0.341000	1.749821
0.341500	1.750458
0.342000	1.750776
0.342500	1.750458
0.343000	1.750776
0.343500	1.750776
0.344000	1.749184
0.344500	1.750139
0.345000	1.750776
0.345500	1.749821
0.346000	1.750139
0.346500	1.750458
0.347000	1.749821
0.347500	1.750776
0.348000	1.750458
0.348500	1.750139
0.349000	1.751413
0.349500	1.750458
0.350000	1.750776
0.350500	1.750776
0.351000	1.750139
0.351500	1.750458
0.352000	1.751732
0.352500	1.751095
0.353000	1.750139
0.353500	1.750776
0.354000	1.749821
0.354500	1.751095
0.355000	1.751732
0.355500	1.750776
0.356000	1.750139
0.356500	1.751732
0.357000	1.751095
0.357500	1.750458
0.358000	1.750776
0.358500	1.750139
0.359000	1.751095
0.359500	1.751732
0.360000	1.749821
0.360500	1.750776
0.361000	1.751732
0.361500	1.750776
0.362000	1.750458
0.362500	1.750458
0.363000	1.750458
0.363500	1.751732
0.364000	1.750776
0.364500	1.750776
0.365000	1.751095
0.365500	1.751413
0.366000	1.750458
0.366500	1.751413
0.367000	1.750139
0.367500	1.750139
0.368000	1.751732
0.368500	1.749821
0.369000	1.749184
0.369500	1.751413
0.370000	1.751413
0.370500	1.750458
0.371000	1.750776
0.371500	1.750776
0.372000	1.751095
0.372500	1.751413
0.373000	1.749821
0.373500	1.750458
0.374000	1.751413
0.374500	1.750139
0.375000	1.749821
0.375500	1.750776
0.376000	1.750458
0.376500	1.750776
0.377000	1.751095
0.377500	1.750458
0.378000	1.750776
0.378500	1.751095
0.379000	1.750139
0.379500	1.750776
0.380000	1.750776
0.380500	1.749821
0.381000	1.750458
0.381500	1.749821
0.382000	1.750776
0.382500	1.750776
0.383000	1.749502
0.383500	1.749821
0.384000	1.751095
0.384500	1.750776
0.385000	1.750139
0.385500	1.750776
0.386000	1.750139
0.386500	1.750776
0.387000	1.751413
0.387500	1.750458
0.388000	1.749821
0.388500	1.750776
0.389000	1.750458
0.389500	1.749821
0.390000	1.750776
0.390500	1.750139
0.391000	1.750776
0.391500	1.750776
0.392000	1.749502
0.392500	1.751095
0.393000	1.750776
0.393500	1.750458
0.394000	1.749502
0.394500	1.751413
0.395000	1.750458
0.395500	1.750458
0.396000	1.750458
0.396500	1.750139
0.397000	1.751413
0.397500	1.751413
0.398000	1.750776
0.398500	1.750776
0.399000	1.750776
0.399500	1.750458
0.400000	1.751413
0.400500	1.750776
0.401000	1.750458
0.401500	1.750776
0.402000	1.751732
0.402500	1.750776
0.403000	1.750776
0.403500	1.751413
0.404000	1.750458
0.404500	1.751095
0.405000	1.749821
0.405500	1.750776
0.406000	1.750776
0.406500	1.750776
0.407000	1.750458
0.407500	1.751413
0.408000	1.751095
0.408500	1.750139
0.409000	1.751413
0.409500	1.751095
0.410000	1.750776
0.410500	1.751095
0.411000	1.750139
0.411500	1.750776
0.412000	1.752687
0.412500	1.749821
0.413000	1.750776
0.413500	1.751732
0.414000	1.750776
0.414500	1.750458
0.415000	1.750458
0.415500	1.750776
0.416000	1.752050
0.416500	1.750139
0.417000	1.750458
0.417500	1.750458
0.418000	1.751413
0.418500	1.750776
0.419000	1.750776
0.419500	1.750458
0.420000	1.750776
0.420500	1.751095
0.421000	1.750139
0.421500	1.749184
0.422000	1.750139
0.422500	1.751095
0.423000	1.750776
0.423500	1.750776
0.424000	1.749821
0.424500	1.749821
0.425000	1.750776
0.425500	1.750458
0.426000	1.750139
0.426500	1.750776
0.427000	1.750458
0.427500	1.749821
0.428000	1.750458
0.428500	1.750139
0.429000	1.750458
0.429500	1.751413
0.430000	1.749821
0.430500	1.750458
0.431000	1.750458
0.431500	1.749821
0.432000	1.750139
0.432500	1.751413
0.433000	1.749821
0.433500	1.749821
0.434000	1.751413
0.434500	1.749502
0.435000	1.750458
0.435500	1.750458
0.436000	1.749821
0.436500	1.750139
0.437000	1.749821
0.437500	1.749502
0.438000	1.750139
0.438500	1.750776
0.439000	1.750776
0.439500	1.750776
0.440000	1.750458
0.440500	1.749821
0.441000	1.750776
0.441500	1.750776
0.442000	1.749502
0.442500	1.750139
0.443000	1.751095
0.443500	1.751095
0.444000	1.750776
0.444500	1.750458
0.445000	1.750458
0.445500	1.751095
0.446000	1.750458
0.446500	1.749184
0.447000	1.750458
0.447500	1.751095
0.448000	1.751095
0.448500	1.750776
0.449000	1.750776
0.449500	1.749821
0.450000	1.751413
0.450500	1.750776
0.451000	1.751095
0.451500	1.751095
0.452000	1.751095
0.452500	1.750776
0.453000	1.751095
0.453500	1.750776
0.454000	1.751095
0.454500	1.751413
0.455000	1.750139
0.455500	1.750458
0.456000	1.750776
0.456500	1.751413
0.457000	1.751413
0.457500	1.750776
0.458000	1.751095
0.458500	1.750776
0.459000	1.751732
0.459500	1.751095
0.460000	1.750776
0.460500	1.751095
0.461000	1.750776
0.461500	1.751413
0.462000	1.751732
0.462500	1.750139
0.463000	1.751095
0.463500	1.751413
0.464000	1.751732
0.464500	1.751413
0.465000	1.750776
0.465500	1.750458
0.466000	1.751095
0.466500	1.751095
0.467000	1.750776
0.467500	1.751413
0.468000	1.751413
0.468500	1.751095
0.469000	1.751732
0.469500	1.751095
0.470000	1.751095
0.470500	1.751732
0.471000	1.751413
0.471500	1.751095
0.472000	1.750776
0.472500	1.751413
0.473000	1.752050
0.473500	1.751095
0.474000	1.751413
0.474500	1.751095
0.475000	1.752369
0.475500	1.751095
0.476000	1.751095
0.476500	1.751095
0.477000	1.751413
0.477500	1.752687
0.478000	1.751095
0.478500	1.750458
0.479000	1.751095
0.479500	1.752369
0.480000	1.751413
0.480500	1.751732
0.481000	1.751413
0.481500	1.751732
0.482000	1.752050
0.482500	1.751732
0.483000	1.750776
0.483500	1.751413
0.484000	1.752050
0.484500	1.751413
0.485000	1.750776
0.485500	1.751413
0.486000	1.751413
0.486500	1.752050
0.487000	1.751732
0.487500	1.751095
0.488000	1.751732
0.488500	1.751732
0.489000	1.750776
0.489500	1.751732
0.490000	1.751413
0.490500	1.750458
0.491000	1.752369
0.491500	1.751413
0.492000	1.750458
0.492500	1.751732
0.493000	1.750776
0.493500	1.752050
0.494000	1.752050
0.494500	1.751095
0.495000	1.750458
0.495500	1.751732
0.496000	1.750458
0.496500	1.750776
0.497000	1.751413
0.497500	1.750458
0.498000	1.751732
0.498500	1.751413
0.499000	1.750458
0.499500	1.751732
0.500000	1.751413
0.500500	1.751732
0.501000	1.750776
0.501500	1.750776
0.502000	1.750776
0.502500	1.751413
0.503000	1.751413
0.503500	1.750458
0.504000	1.751413
0.504500	1.751413
0.505000	1.750458
0.505500	1.751095
0.506000	1.750776
0.506500	1.750776
0.507000	1.752050
0.507500	1.749821
0.508000	1.749821
0.508500	1.750776
0.509000	1.751413
0.509500	1.751732
0.510000	1.751095
0.510500	1.750458
0.511000	1.751095
0.511500	1.752050
0.512000	1.751732
0.512500	1.750776
0.513000	1.751413
0.513500	1.751095
0.514000	1.750776
0.514500	1.751732
0.515000	1.751095
0.515500	1.750776
0.516000	1.751095
0.516500	1.750139
0.517000	1.750776
0.517500	1.751095
0.518000	1.750458
0.518500	1.750776
0.519000	1.751413
0.519500	1.750458
0.520000	1.751413
0.520500	1.751732
0.521000	1.750776
0.521500	1.751095
0.522000	1.750139
0.522500	1.750776
0.523000	1.750776
0.523500	1.751413
0.524000	1.749821
0.524500	1.751095
0.525000	1.751095
0.525500	1.751095
0.526000	1.750458
0.526500	1.750776
0.527000	1.750458
0.527500	1.752050
0.528000	1.750776
0.528500	1.750139
0.529000	1.750139
0.529500	1.751413
0.530000	1.750776
0.530500	1.751732
0.531000	1.751095
0.531500	1.750776
0.532000	1.752369
0.532500	1.750458
0.533000	1.750458
0.533500	1.751732
0.534000	1.751095
0.534500	1.751732
0.535000	1.751732
0.535500	1.751095
0.536000	1.751413
0.536500	1.751732
0.537000	1.750776
0.537500	1.751413
0.538000	1.751413
0.538500	1.750776
0.539000	1.751095
0.539500	1.751413
0.540000	1.750776
0.540500	1.751413
0.541000	1.751413
0.541500	1.751413
0.542000	1.752050
0.542500	1.751413
0.543000	1.750776
0.543500	1.751732
0.544000	1.752050
0.544500	1.751095
0.545000	1.751413
0.545500	1.751413
0.546000	1.752050
0.546500	1.751413
0.547000	1.751095
0.547500	1.750776
0.548000	1.752050
0.548500	1.751095
0.549000	1.750776
0.549500	1.752050
0.550000	1.751413
0.550500	1.751732
0.551000	1.751732
0.551500	1.750458
0.552000	1.751413
0.552500	1.751732
0.553000	1.751732
0.553500	1.750776
0.554000	1.751732
0.554500	1.750776
0.555000	1.752050
0.555500	1.752050
0.556000	1.750139
0.556500	1.751732
0.557000	1.752369
0.557500	1.751413
0.558000	1.751413
0.558500	1.751413
0.559000	1.751732
0.559500	1.751732
0.560000	1.751413
0.560500	1.749821
0.561000	1.751732
0.561500	1.752050
0.562000	1.751413
0.562500	1.751732
0.563000	1.751413
0.563500	1.751413
0.564000	1.752050
0.564500	1.751732
0.565000	1.751095
0.565500	1.751413
0.566000	1.751095
0.566500	1.751732
0.567000	1.752050
0.567500	1.751732
0.568000	1.750776
0.568500	1.752050
0.569000	1.751732
0.569500	1.751095
0.570000	1.751732
0.570500	1.750776
0.571000	1.751413
0.571500	1.751413
0.572000	1.751732
0.572500	1.750776
0.573000	1.752687
0.573500	1.752050
0.574000	1.752050
0.574500	1.751413
0.575000	1.751732
0.575500	1.751732
0.576000	1.752050
0.576500	1.749821
0.577000	1.751095
0.577500	1.752050
0.578000	1.751732
0.578500	1.752050
0.579000	1.751732
0.579500	1.751095
0.580000	1.752687
0.580500	1.751413
0.581000	1.750139
0.581500	1.751732
0.582000	1.751413
0.582500	1.752050
0.583000	1.751413
0.583500	1.751095
0.584000	1.752050
0.584500	1.752050
0.585000	1.751732
0.585500	1.751413
0.586000	1.751732
0.586500	1.751732
0.587000	1.752050
0.587500	1.752050
0.588000	1.751413
0.588500	1.752050
0.589000	1.752050
0.589500	1.751413
0.590000	1.751732
0.590500	1.751413
0.591000	1.751413
0.591500	1.751732
0.592000	1.751732
0.592500	1.750776
0.593000	1.752369
0.593500	1.752369
0.594000	1.751095
0.594500	1.751732
0.595000	1.751732
0.595500	1.751413
0.596000	1.751095
0.596500	1.751413
0.597000	1.751732
0.597500	1.751413
0.598000	1.750776
0.598500	1.751413
0.599000	1.752050
0.599500	1.751413
0.600000	1.751732
0.600500	1.751413
0.601000	1.752050
0.601500	1.751095
0.602000	1.751095
0.602500	1.751095
0.603000	1.751413
0.603500	1.751732
0.604000	1.751413
0.604500	1.751095
0.605000	1.752369
0.605500	1.750776
0.606000	1.751413
0.606500	1.752050
0.607000	1.750776
0.607500	1.752050
0.608000	1.752369
0.608500	1.750776
0.609000	1.751095
0.609500	1.752369
0.610000	1.751413
0.610500	1.750776
0.611000	1.751413
0.611500	1.751413
0.612000	1.752369
0.612500	1.751413
0.613000	1.750139
0.613500	1.751413
0.614000	1.751732
0.614500	1.751095
0.615000	1.751413
0.615500	1.751095
0.616000	1.750776
0.616500	1.750776
0.617000	1.751732
0.617500	1.750776
0.618000	1.752050
0.618500	1.751095
0.619000	1.751095
0.619500	1.752050
0.620000	1.751095
0.620500	1.751095
0.621000	1.751732
0.621500	1.750776
0.622000	1.751413
0.622500	1.751413
0.623000	1.750776
0.623500	1.751413
0.624000	1.751413
0.624500	1.750458
0.625000	1.750776
0.625500	1.752050
0.626000	1.751732
0.626500	1.751413
0.627000	1.750776
0.627500	1.750458
0.628000	1.750458
0.628500	1.751732
0.629000	1.750139
0.629500	1.751095
0.630000	1.751732
0.630500	1.751413
0.631000	1.751095
0.631500	1.750776
0.632000	1.750776
0.632500	1.751732
0.633000	1.751413
0.633500	1.750776
0.634000	1.751095
0.634500	1.751413
0.635000	1.751413
0.635500	1.751095
0.636000	1.749821
0.636500	1.750776
0.637000	1.752050
0.637500	1.751413
0.638000	1.750776
0.638500	1.751413
0.639000	1.751413
0.639500	1.752050
0.640000	1.751095
0.640500	1.750458
0.641000	1.751732
0.641500	1.752050
0.642000	1.751413
0.642500	1.750776
0.643000	1.751413
0.643500	1.750776
0.644000	1.752050
0.644500	1.751413
0.645000	1.750458
0.645500	1.751732
0.646000	1.751413
0.646500	1.751095
0.647000	1.751732
0.647500	1.751095
0.648000	1.750458
0.648500	1.751732
0.649000	1.751732
0.649500	1.750776
0.650000	1.751732
0.650500	1.750139
0.651000	1.751413
0.651500	1.752050
0.652000	1.751095
0.652500	1.751413
0.653000	1.752687
0.653500	1.752050
0.654000	1.750776
0.654500	1.751095
0.655000	1.750776
0.655500	1.751095
0.656000	1.751732
0.656500	1.750458
0.657000	1.751413
0.657500	1.751732
0.658000	1.751413
0.658500	1.751095
0.659000	1.751095
0.659500	1.751095
0.660000	1.752687
0.660500	1.750776
0.661000	1.749821
0.661500	1.751095
0.662000	1.751413
0.662500	1.751413
0.663000	1.751095
0.663500	1.750776
0.664000	1.750776
0.664500	1.751732
0.665000	1.750776
0.665500	1.750458
0.666000	1.751095
0.666500	1.752050
0.667000	1.751095
0.667500	1.750776
0.668000	1.750458
0.668500	1.750776
0.669000	1.752687
0.669500	1.750776
0.670000	1.751095
0.670500	1.750139
0.671000	1.750458
0.671500	1.750776
0.672000	1.750776
0.672500	1.750458
0.673000	1.751095
0.673500	1.751413
0.674000	1.750776
0.674500	1.751095
0.675000	1.750776
0.675500	1.750139
0.676000	1.750776
0.676500	1.750776
0.677000	1.750458
0.677500	1.751095
0.678000	1.750776
0.678500	1.750776
0.679000	1.751413
0.679500	1.750139
0.680000	1.750139
0.680500	1.751413
0.681000	1.750776
0.681500	1.749502
0.682000	1.751095
0.682500	1.750776
0.683000	1.751095
0.683500	1.751732
0.684000	1.750139
0.684500	1.750458
0.685000	1.751413
0.685500	1.750458
0.686000	1.749821
0.686500	1.750776
0.687000	1.750458
0.687500	1.751095
0.688000	1.751095
0.688500	1.749502
0.689000	1.750776
0.689500	1.751413
0.690000	1.750776
0.690500	1.750776
0.691000	1.751095
0.691500	1.750776
0.692000	1.750776
0.692500	1.750776
0.693000	1.750139
0.693500	1.751413
0.694000	1.750458
0.694500	1.750458
0.695000	1.750776
0.695500	1.750139
0.696000	1.750776
0.696500	1.751413
0.697000	1.751095
0.697500	1.749821
0.698000	1.750776
0.698500	1.750458
0.699000	1.750776
0.699500	1.751095
0.700000	1.749821
0.700500	1.750776
0.701000	1.751095
0.701500	1.749821
0.702000	1.749821
0.702500	1.750776
0.703000	1.749502
0.703500	1.749821
0.704000	1.751413
0.704500	1.749821
0.705000	1.749502
0.705500	1.750776
0.706000	1.749502
0.706500	1.750776
0.707000	1.750139
0.707500	1.749821
0.708000	1.749821
0.708500	1.750776
0.709000	1.748547
0.709500	1.750776
0.710000	1.750139
0.710500	1.750139
0.711000	1.750776
0.711500	1.749821
0.712000	1.749502
0.712500	1.751095
0.713000	1.750458
0.713500	1.748866
0.714000	1.750458
0.714500	1.750458
0.715000	1.750776
0.715500	1.750776
0.716000	1.750139
0.716500	1.749821
0.717000	1.751095
0.717500	1.749502
0.718000	1.749184
0.718500	1.749502
0.719000	1.749821
0.719500	1.750458
0.720000	1.750458
0.720500	1.749184
0.721000	1.749502
0.721500	1.749821
0.722000	1.749502
0.722500	1.749502
0.723000	1.749821
0.723500	1.749184
0.724000	1.750458
0.724500	1.749821
0.725000	1.749184
0.725500	1.749821
0.726000	1.749821
0.726500	1.749184
0.727000	1.749502
0.727500	1.749821
0.728000	1.749184
0.728500	1.749502
0.729000	1.749184
0.729500	1.749184
0.730000	1.750139
0.730500	1.749502
0.731000	1.750139
0.731500	1.749821
0.732000	1.749502
0.732500	1.749502
0.733000	1.750139
0.733500	1.749821
0.734000	1.749502
0.734500	1.750458
0.735000	1.748547
0.735500	1.749821
0.736000	1.750776
0.736500	1.748547
0.737000	1.749184
0.737500	1.751413
0.738000	1.749502
0.738500	1.749502
0.739000	1.749502
0.739500	1.749184
0.740000	1.749821
0.740500	1.749821
0.741000	1.749502
0.741500	1.750139
0.742000	1.750776
0.742500	1.750458
0.743000	1.749821
0.743500	1.749502
0.744000	1.749502
0.744500	1.750458
0.745000	1.749184
0.745500	1.748866
0.746000	1.750458
0.746500	1.750458
0.747000	1.749821
0.747500	1.750458
0.748000	1.750139
0.748500	1.750139
0.749000	1.750139
0.749500	1.750139
0.750000	1.749184
0.750500	1.750776
0.751000	1.749821
0.751500	1.749821
0.752000	1.750458
0.752500	1.749821
0.753000	1.749821
0.753500	1.750776
0.754000	1.750458
0.754500	1.749821
0.755000	1.750776
0.755500	1.750139
0.756000	1.750776
0.756500	1.750776
0.757000	1.749821
0.757500	1.750139
0.758000	1.750776
0.758500	1.750458
0.759000	1.751095
0.759500	1.750776
0.760000	1.750458
0.760500	1.751732
0.761000	1.751413
0.761500	1.750458
0.762000	1.751413
0.762500	1.750776
0.763000	1.750776
0.763500	1.751413
0.764000	1.750776
0.764500	1.750458
0.765000	1.751732
0.765500	1.751732
0.766000	1.750458
0.766500	1.751413
0.767000	1.750458
0.767500	1.751732
0.768000	1.751413
0.768500	1.749821
0.769000	1.751413
0.769500	1.752050
0.770000	1.750776
0.770500	1.750776
0.771000	1.751095
0.771500	1.750776
0.772000	1.751413
0.772500	1.751732
0.773000	1.751095
0.773500	1.751732
0.774000	1.751732
0.774500	1.751095
0.775000	1.750776
0.775500	1.751413
0.776000	1.751413
0.776500	1.752050
0.777000	1.751732
0.777500	1.750776
0.778000	1.751732
0.778500	1.753005
0.779000	1.750776
0.779500	1.751732
0.780000	1.751095
0.780500	1.750776
0.781000	1.751413
0.781500	1.750776
0.782000	1.750776
0.782500	1.752050
0.783000	1.751413
0.783500	1.751095
0.784000	1.751413
0.784500	1.750776
0.785000	1.750776
0.785500	1.752050
0.786000	1.751413
0.786500	1.752050
0.787000	1.751413
0.787500	1.751095
0.788000	1.751732
0.788500	1.752050
0.789000	1.750776
0.789500	1.751095
0.790000	1.751413
0.790500	1.751413
0.791000	1.751413
0.791500	1.751413
0.792000	1.751095
0.792500	1.751732
0.793000	1.751095
0.793500	1.750139
0.794000	1.750776
0.794500	1.752050
0.795000	1.750776
0.795500	1.751095
0.796000	1.750139
0.796500	1.750458
0.797000	1.751732
0.797500	1.751413
0.798000	1.749184
0.798500	1.750776
0.799000	1.751095
0.799500	1.750458
0.800000	1.750139
0.800500	1.749821
0.801000	1.750458
0.801500	1.751413
0.802000	1.750776
0.802500	1.750458
0.803000	1.751095
0.803500	1.751095
0.804000	1.750139
0.804500	1.751413
0.805000	1.750458
0.805500	1.751095
0.806000	1.751732
0.806500	1.750139
0.807000	1.750776
0.807500	1.752050
0.808000	1.750776
0.808500	1.750458
0.809000	1.751413
0.809500	1.750458
0.810000	1.750776
0.810500	1.750458
0.811000	1.750776
0.811500	1.751095
0.812000	1.751095
0.812500	1.750139
0.813000	1.751413
0.813500	1.751095
0.814000	1.750458
0.814500	1.751413
0.815000	1.752050
0.815500	1.750776
0.816000	1.751732
0.816500	1.751413
0.817000	1.750776
0.817500	1.750776
0.818000	1.751732
0.818500	1.750458
0.819000	1.751095
0.819500	1.751413
0.820000	1.751095
0.820500	1.751413
0.821000	1.750776
0.821500	1.751095
0.822000	1.752369
0.822500	1.750458
0.823000	1.750776
0.823500	1.751413
0.824000	1.750776
0.824500	1.751732
0.825000	1.751413
0.825500	1.749821
0.826000	1.751413
0.826500	1.753324
0.827000	1.750458
0.827500	1.750776
0.828000	1.751732
0.828500	1.750776
0.829000	1.751413
0.829500	1.751732
0.830000	1.750458
0.830500	1.751732
0.831000	1.751413
0.831500	1.751095
0.832000	1.751413
0.832500	1.752050
0.833000	1.750458
0.833500	1.751413
0.834000	1.751413
0.834500	1.750776
0.835000	1.752687
0.835500	1.751732
0.836000	1.751413
0.836500	1.752050
0.837000	1.751732
0.837500	1.750776
0.838000	1.751732
0.838500	1.751413
0.839000	1.751095
0.839500	1.751413
0.840000	1.751413
0.840500	1.750776
0.841000	1.751413
0.841500	1.751413
0.842000	1.751095
0.842500	1.752369
0.843000	1.750776
0.843500	1.750776
0.844000	1.751413
0.844500	1.750776
0.845000	1.751732
0.845500	1.751732
0.846000	1.750458
0.846500	1.750776
0.847000	1.751732
0.847500	1.751413
0.848000	1.750776
0.848500	1.751095
0.849000	1.750458
0.849500	1.751413
0.850000	1.751095
0.850500	1.750139
0.851000	1.750776
0.851500	1.751413
0.852000	1.751095
0.852500	1.750458
0.853000	1.750776
0.853500	1.751095
0.854000	1.751732
0.854500	1.750776
0.855000	1.750776
0.855500	1.751095
0.856000	1.751732
0.856500	1.750458
0.857000	1.751732
0.857500	1.750458
0.858000	1.750776
0.858500	1.752050
0.859000	1.750458
0.859500	1.749821
0.860000	1.750776
0.860500	1.749821
0.861000	1.750139
0.861500	1.751732
0.862000	1.749821
0.862500	1.750458
0.863000	1.751732
0.863500	1.750458
0.864000	1.749821
0.864500	1.751413
0.865000	1.750458
0.865500	1.750776
0.866000	1.750776
0.866500	1.750458
0.867000	1.750776
0.867500	1.750776
0.868000	1.750776
0.868500	1.750776
0.869000	1.749821
0.869500	1.749821
0.870000	1.750776
0.870500	1.750776
0.871000	1.749502
0.871500	1.750776
0.872000	1.751413
0.872500	1.750776
0.873000	1.751413
0.873500	1.750139
0.874000	1.751095
0.874500	1.751095
0.875000	1.750458
0.875500	1.750458
0.876000	1.751095
0.876500	1.751732
0.877000	1.751095
0.877500	1.751095
0.878000	1.750776
0.878500	1.750458
0.879000	1.752050
0.879500	1.749821
0.880000	1.749502
0.880500	1.750458
0.881000	1.750776
0.881500	1.749821
0.882000	1.750776
0.882500	1.749821
0.883000	1.750458
0.883500	1.750776
0.884000	1.749821
0.884500	1.749821
0.885000	1.751095
0.885500	1.750776
0.886000	1.750458
0.886500	1.751095
0.887000	1.749502
0.887500	1.751095
0.888000	1.751095
0.888500	1.750458
0.889000	1.750458
0.889500	1.750458
0.890000	1.750458
0.890500	1.750458
0.891000	1.750139
0.891500	1.749502
0.892000	1.750139
0.892500	1.750458
0.893000	1.749502
0.893500	1.750776
0.894000	1.750776
0.894500	1.750139
0.895000	1.750458
0.895500	1.750776
0.896000	1.750139
0.896500	1.750139
0.897000	1.750458
0.897500	1.750458
0.898000	1.750776
0.898500	1.750458
0.899000	1.750139
0.899500	1.751732
0.900000	1.750458
0.900500	1.749821
0.901000	1.750776
0.901500	1.750776
0.902000	1.751413
0.902500	1.750776
0.903000	1.749821
0.903500	1.750458
0.904000	1.750776
0.904500	1.749821
0.905000	1.750458
0.905500	1.750776
0.906000	1.750139
0.906500	1.751095
0.907000	1.750776
0.907500	1.749184
0.908000	1.750458
0.908500	1.751413
0.909000	1.750139
0.909500	1.750776
0.910000	1.750139
0.910500	1.750458
0.911000	1.750776
0.911500	1.750458
0.912000	1.749184
0.912500	1.749821
0.913000	1.750776
0.913500	1.750139
0.914000	1.750458
0.914500	1.750139
0.915000	1.750458
0.915500	1.750458
0.916000	1.750776
0.916500	1.749502
0.917000	1.750776
0.917500	1.749502
0.918000	1.750139
0.918500	1.750776
0.919000	1.750458
0.919500	1.749821
0.920000	1.751095
0.920500	1.750776
0.921000	1.750139
0.921500	1.750776
0.922000	1.750139
0.922500	1.750776
0.923000	1.750139
0.923500	1.749821
0.924000	1.751095
0.924500	1.751413
0.925000	1.749502
0.925500	1.750776
0.926000	1.750458
0.926500	1.749821
0.927000	1.750458
0.927500	1.751413
0.928000	1.750458
0.928500	1.750776
0.929000	1.750776
0.929500	1.751095
0.930000	1.750776
0.930500	1.751095
0.931000	1.749821
0.931500	1.751732
0.932000	1.751413
0.932500	1.749502
0.933000	1.750776
0.933500	1.751095
0.934000	1.750776
0.934500	1.751413
0.935000	1.750458
0.935500	1.750776
0.936000	1.751413
0.936500	1.750776
0.937000	1.750458
0.937500	1.750776
0.938000	1.751732
0.938500	1.750776
0.939000	1.751413
0.939500	1.750776
0.940000	1.750776
0.940500	1.751732
0.941000	1.750776
0.941500	1.750458
0.942000	1.751732
0.942500	1.751095
0.943000	1.751413
0.943500	1.751732
0.944000	1.751413
0.944500	1.750776
0.945000	1.751732
0.945500	1.751095
0.946000	1.750776
0.946500	1.750776
0.947000	1.750776
0.947500	1.751413
0.948000	1.751413
0.948500	1.750458
0.949000	1.751095
0.949500	1.751732
0.950000	1.751095
0.950500	1.751413
0.951000	1.750776
0.951500	1.750458
0.952000	1.750776
0.952500	1.751732
0.953000	1.750776
0.953500	1.751413
0.954000	1.751732
0.954500	1.751732
0.955000	1.752050
0.955500	1.751413
0.956000	1.751413
0.956500	1.752050
0.957000	1.752050
0.957500	1.750776
0.958000	1.751732
0.958500	1.751413
0.959000	1.751095
0.959500	1.751732
0.960000	1.751413
0.960500	1.751413
0.961000	1.752050
0.961500	1.751095
0.962000	1.750458
0.962500	1.750776
0.963000	1.752050
0.963500	1.750458
0.964000	1.751413
0.964500	1.750776
0.965000	1.751095
0.965500	1.752050
0.966000	1.749821
0.966500	1.749502
0.967000	1.751413
0.967500	1.750458
0.968000	1.750458
0.968500	1.751095
0.969000	1.751095
0.969500	1.750776
0.970000	1.751095
0.970500	1.750776
0.971000	1.750139
0.971500	1.751413
0.972000	1.750776
0.972500	1.750458
0.973000	1.751732
0.973500	1.749502
0.974000	1.751095
0.974500	1.751413
0.975000	1.751413
0.975500	1.751413
0.976000	1.751095
0.976500	1.750139
0.977000	1.750458
0.977500	1.750776
0.978000	1.750458
0.978500	1.750458
0.979000	1.751095
0.979500	1.750458
0.980000	1.751413
0.980500	1.750458
0.981000	1.750458
0.981500	1.750458
0.982000	1.750776
0.982500	1.750776
0.983000	1.750458
0.983500	1.750458
0.984000	1.750458
0.984500	1.751413
0.985000	1.750458
0.985500	1.750139
0.986000	1.751413
0.986500	1.750776
0.987000	1.749821
0.987500	1.750139
0.988000	1.751095
0.988500	1.750458
0.989000	1.751095
0.989500	1.750139
0.990000	1.750776
0.990500	1.750776
0.991000	1.750458
0.991500	1.749184
0.992000	1.750776
0.992500	1.750458
0.993000	1.751095
0.993500	1.750458
0.994000	1.750776
0.994500	1.750776
0.995000	1.751732
0.995500	1.750458
0.996000	1.750776
0.996500	1.751413
0.997000	1.751413
0.997500	1.751413
0.998000	1.750776
0.998500	1.749502
0.999000	1.751413
0.999500	1.751413
1.000000	1.750458
1.000500	1.750776
1.001000	1.750776
1.001500	1.749821
1.002000	1.750458
1.002500	1.750458
1.003000	1.750139
1.003500	1.750776
1.004000	1.751732
1.004500	1.750776
1.005000	1.750458
1.005500	1.750458
1.006000	1.750776
1.006500	1.751095
1.007000	1.750776
1.007500	1.750458
1.008000	1.750458
1.008500	1.751095
1.009000	1.750776
1.009500	1.751413
1.010000	1.750458
1.010500	1.749821
1.011000	1.751095
1.011500	1.750776
1.012000	1.750458
1.012500	1.751095
1.013000	1.750776
1.013500	1.750776
1.014000	1.750776
1.014500	1.749821
1.015000	1.750458
1.015500	1.751732
1.016000	1.750776
1.016500	1.749502
1.017000	1.750776
1.017500	1.749821
1.018000	1.751413
1.018500	1.750776
1.019000	1.750139
1.019500	1.750458
1.020000	1.751095
1.020500	1.750139
1.021000	1.750458
1.021500	1.750458
1.022000	1.750139
1.022500	1.750139
1.023000	1.750458
1.023500	1.749821
1.024000	1.750458
1.024500	1.750776
1.025000	1.750458
1.025500	1.751095
1.026000	1.750458
1.026500	1.750458
1.027000	1.751732
1.027500	1.750139
1.028000	1.749821
1.028500	1.750139
1.029000	1.749821
1.029500	1.749821
1.030000	1.750776
1.030500	1.750458
1.031000	1.749502
1.031500	1.750776
1.032000	1.749821
1.032500	1.749821
1.033000	1.750776
1.033500	1.749502
1.034000	1.750776
1.034500	1.751095
1.035000	1.749502
1.035500	1.750776
1.036000	1.750776
1.036500	1.750139
1.037000	1.750458
1.037500	1.750776
1.038000	1.749502
1.038500	1.750776
1.039000	1.750776
1.039500	1.749821
1.040000	1.750458
1.040500	1.751095
1.041000	1.750139
1.041500	1.750458
1.042000	1.750458
1.042500	1.750139
1.043000	1.750776
1.043500	1.750776
1.044000	1.749821
1.044500	1.750458
1.045000	1.752050
1.045500	1.750776
1.046000	1.750139
1.046500	1.750458
1.047000	1.750776
1.047500	1.751095
1.048000	1.751095
1.048500	1.749502
1.049000	1.751413
1.049500	1.751413
1.050000	1.750458
1.050500	1.750458
1.051000	1.751095
1.051500	1.750776
1.052000	1.751413
1.052500	1.750139
1.053000	1.749821
1.053500	1.751095
1.054000	1.751095
1.054500	1.750776
1.055000	1.751732
1.055500	1.751413
1.056000	1.751413
1.056500	1.751732
1.057000	1.750458
1.057500	1.750458
1.058000	1.750776
1.058500	1.749821
1.059000	1.751095
1.059500	1.751413
1.060000	1.750458
1.060500	1.750458
1.061000	1.751413
1.061500	1.750458
1.062000	1.750776
1.062500	1.750458
1.063000	1.751095
1.063500	1.751413
1.064000	1.751413
1.064500	1.750458
1.065000	1.750776
1.065500	1.750776
1.066000	1.750139
1.066500	1.751732
1.067000	1.750458
1.067500	1.750458
1.068000	1.752050
1.068500	1.750776
1.069000	1.750458
1.069500	1.750776
1.070000	1.750776
1.070500	1.751095
1.071000	1.750139
1.071500	1.750776
1.072000	1.751413
1.072500	1.751732
1.073000	1.750458
1.073500	1.751095
1.074000	1.751095
1.074500	1.749821
1.075000	1.751732
1.075500	1.750458
1.076000	1.750776
1.076500	1.751095
1.077000	1.751732
1.077500	1.750139
1.078000	1.751095
1.078500	1.750776
1.079000	1.750776
1.079500	1.750139
1.080000	1.750458
1.080500	1.749821
1.081000	1.751732
1.081500	1.750458
1.082000	1.750776
1.082500	1.751413
1.083000	1.750458
1.083500	1.750458
1.084000	1.750776
1.084500	1.750776
1.085000	1.750458
1.085500	1.751413
1.086000	1.750458
1.086500	1.751095
1.087000	1.751732
1.087500	1.750776
1.088000	1.750458
1.088500	1.751095
1.089000	1.750458
1.089500	1.750458
1.090000	1.750776
1.090500	1.750458
1.091000	1.751413
1.091500	1.751413
1.092000	1.749821
1.092500	1.750139
1.093000	1.751413
1.093500	1.750458
1.094000	1.751413
1.094500	1.750776
1.095000	1.750458
1.095500	1.751095
1.096000	1.750776
1.096500	1.749502
1.097000	1.751095
1.097500	1.751095
1.098000	1.750776
1.098500	1.750776
1.099000	1.750776
1.099500	1.751095
1.100000	1.751413
1.100500	1.751095
1.101000	1.750139
1.101500	1.750776
1.102000	1.750776
1.102500	1.750776
1.103000	1.750776
1.103500	1.750139
1.104000	1.751095
1.104500	1.751732
1.105000	1.749821
1.105500	1.750139
1.106000	1.750776
1.106500	1.750776
1.107000	1.750776
1.107500	1.750776
1.108000	1.750458
1.108500	1.751095
1.109000	1.751732
1.109500	1.750776
1.110000	1.750458
1.110500	1.750776
1.111000	1.751095
1.111500	1.750776
1.112000	1.751095
1.112500	1.749502
1.113000	1.750776
1.113500	1.751732
1.114000	1.750458
1.114500	1.750776
1.115000	1.751413
1.115500	1.750458
1.116000	1.751732
1.116500	1.750458
1.117000	1.750139
1.117500	1.750776
1.118000	1.750139
1.118500	1.750776
1.119000	1.751095
1.119500	1.750458
1.120000	1.750139
1.120500	1.752050
1.121000	1.751732
1.121500	1.749821
1.122000	1.750776
1.122500	1.750776
1.123000	1.751095
1.123500	1.751413
1.124000	1.750139
1.124500	1.751413
1.125000	1.751413
1.125500	1.750776
1.126000	1.750458
1.126500	1.751095
1.127000	1.750776
1.127500	1.750458
1.128000	1.751413
1.128500	1.750458
1.129000	1.751095
1.129500	1.751413
1.130000	1.750458
1.130500	1.750458
1.131000	1.751095
1.131500	1.750776
1.132000	1.751413
1.132500	1.750458
1.133000	1.750458
1.133500	1.750776
1.134000	1.750776
1.134500	1.750458
1.135000	1.750776
1.135500	1.751095
1.136000	1.750776
1.136500	1.751095
1.137000	1.749821
1.137500	1.749821
1.138000	1.751095
1.138500	1.750776
1.139000	1.751095
1.139500	1.751095
1.140000	1.750458
1.140500	1.749502
1.141000	1.751732
1.141500	1.750139
1.142000	1.749821
1.142500	1.751413
1.143000	1.750458
1.143500	1.750458
1.144000	1.751413
1.144500	1.750776
1.145000	1.750776
1.145500	1.751732
1.146000	1.750776
1.146500	1.750776
1.147000	1.750458
1.147500	1.749502
1.148000	1.750776
1.148500	1.750458
1.149000	1.750139
1.149500	1.750139
1.150000	1.751413
1.150500	1.751095
1.151000	1.749502
1.151500	1.751413
1.152000	1.750458
1.152500	1.751095
1.153000	1.750458
1.153500	1.749502
1.154000	1.750139
1.154500	1.751095
1.155000	1.750139
1.155500	1.750139
1.156000	1.750139
1.156500	1.750139
1.157000	1.750776
1.157500	1.750139
1.158000	1.750139
1.158500	1.749821
1.159000	1.750458
1.159500	1.749821
1.160000	1.750139
1.160500	1.750776
1.161000	1.750776
1.161500	1.751413
1.162000	1.750776
1.162500	1.750139
1.163000	1.750776
1.163500	1.751095
1.164000	1.750458
1.164500	1.751095
1.165000	1.749821
1.165500	1.750776
1.166000	1.750776
1.166500	1.750139
1.167000	1.749821
1.167500	1.751095
1.168000	1.749502
1.168500	1.750776
1.169000	1.750776
1.169500	1.749821
1.170000	1.751413
1.170500	1.750458
1.171000	1.750458
1.171500	1.750458
1.172000	1.751095
1.172500	1.749821
1.173000	1.750776
1.173500	1.750776
1.174000	1.750139
1.174500	1.749821
1.175000	1.751413
1.175500	1.750139
1.176000	1.750139
1.176500	1.749502
1.177000	1.749821
1.177500	1.750776
1.178000	1.750776
1.178500	1.749502
1.179000	1.750139
1.179500	1.750776
1.180000	1.750458
1.180500	1.751095
1.181000	1.750776
1.181500	1.750458
1.182000	1.751413
1.182500	1.750776
1.183000	1.749821
1.183500	1.751413
1.184000	1.750458
1.184500	1.750458
1.185000	1.751095
1.185500	1.751095
1.186000	1.750776
1.186500	1.751095
1.187000	1.750458
1.187500	1.750458
1.188000	1.750776
1.188500	1.750776
1.189000	1.751095
1.189500	1.751095
1.190000	1.750776
1.190500	1.750776
1.191000	1.751095
1.191500	1.749502
1.192000	1.750776
1.192500	1.751095
1.193000	1.750458
1.193500	1.750458
1.194000	1.750776
1.194500	1.750776
1.195000	1.751095
1.195500	1.751732
1.196000	1.750139
1.196500	1.750776
1.197000	1.750776
1.197500	1.749821
1.198000	1.751095
1.198500	1.750776
1.199000	1.750139
1.199500	1.750776
1.200000	1.750776
1.200500	1.750776
1.201000	1.751732
1.201500	1.750776
1.202000	1.750458
1.202500	1.752050
1.203000	1.751413
1.203500	1.750458
1.204000	1.750458
1.204500	1.750776
1.205000	1.751413
1.205500	1.751413
1.206000	1.750458
1.206500	1.751413
1.207000	1.752687
1.207500	1.750458
1.208000	1.750139
1.208500	1.750776
1.209000	1.750139
1.209500	1.751095
1.210000	1.750776
1.210500	1.750139
1.211000	1.750776
1.211500	1.751413
1.212000	1.751095
1.212500	1.750776
1.213000	1.751413
1.213500	1.751095
1.214000	1.751413
1.214500	1.751095
1.215000	1.750776
1.215500	1.751413
1.216000	1.750776
1.216500	1.750458
1.217000	1.751095
1.217500	1.751413
1.218000	1.751095
1.218500	1.752050
1.219000	1.750139
1.219500	1.750139
1.220000	1.751413
1.220500	1.750458
1.221000	1.750776
1.221500	1.751095
1.222000	1.751095
1.222500	1.750458
1.223000	1.751732
1.223500	1.750776
1.224000	1.750776
1.224500	1.750776
1.225000	1.750776
1.225500	1.751413
1.226000	1.751413
1.226500	1.750776
1.227000	1.750776
1.227500	1.751413
1.228000	1.751095
1.228500	1.750776
1.229000	1.751413
1.229500	1.750458
1.230000	1.752050
1.230500	1.751413
1.231000	1.750776
1.231500	1.751413
1.232000	1.752050
1.232500	1.751413
1.233000	1.751413
1.233500	1.751095
1.234000	1.750776
1.234500	1.752050
1.235000	1.751413
1.235500	1.749821
1.236000	1.751413
1.236500	1.751413
1.237000	1.751413
1.237500	1.751413
1.238000	1.751413
1.238500	1.751413
1.239000	1.751732
1.239500	1.750458
1.240000	1.750458
1.240500	1.751413
1.241000	1.752369
1.241500	1.751413
1.242000	1.752050
1.242500	1.751095
1.243000	1.751732
1.243500	1.751732
1.244000	1.751095
1.244500	1.751413
1.245000	1.751732
1.245500	1.751413
1.246000	1.751732
1.246500	1.751732
1.247000	1.751095
1.247500	1.751732
1.248000	1.751413
1.248500	1.751413
1.249000	1.752050
1.249500	1.751732
1.250000	1.750776
1.250500	1.752050
1.251000	1.752050
1.251500	1.750776
1.252000	1.751095
1.252500	1.751732
1.253000	1.751413
1.253500	1.751732
1.254000	1.750776
1.254500	1.750776
1.255000	1.751413
1.255500	1.751413
1.256000	1.750458
1.256500	1.751732
1.257000	1.751732
1.257500	1.751095
1.258000	1.752050
1.258500	1.750139
1.259000	1.750776
1.259500	1.751732
1.260000	1.751732
1.260500	1.750776
1.261000	1.751413
1.261500	1.751413
1.262000	1.750776
1.262500	1.751095
1.263000	1.750139
1.263500	1.751732
1.264000	1.751732
1.264500	1.751095
1.265000	1.751413
1.265500	1.750776
1.266000	1.750776
1.266500	1.751413
1.267000	1.751413
1.267500	1.750458
1.268000	1.751413
1.268500	1.751413
1.269000	1.751413
1.269500	1.751413
1.270000	1.751413
1.270500	1.751413
1.271000	1.752050
1.271500	1.750776
1.272000	1.749821
1.272500	1.751095
1.273000	1.750776
1.273500	1.751732
1.274000	1.751413
1.274500	1.751413
1.275000	1.750458
1.275500	1.751413
1.276000	1.751413
1.276500	1.750776
1.277000	1.750776
1.277500	1.750776
1.278000	1.751095
1.278500	1.752369
1.279000	1.750776
1.279500	1.751732
1.280000	1.751413
1.280500	1.750776
1.281000	1.750776
1.281500	1.750776
1.282000	1.750458
1.282500	1.751413
1.283000	1.751413
1.283500	1.749502
1.284000	1.750776
1.284500	1.751095
1.285000	1.750776
1.285500	1.751095
1.286000	1.749821
1.286500	1.750776
1.287000	1.752050
1.287500	1.751095
1.288000	1.750458
1.288500	1.750776
1.289000	1.751413
1.289500	1.750776
1.290000	1.751095
1.290500	1.750776
1.291000	1.751095
1.291500	1.752050
1.292000	1.751095
1.292500	1.751095
1.293000	1.752369
1.293500	1.751095
1.294000	1.751413
1.294500	1.751413
1.295000	1.750776
1.295500	1.752050
1.296000	1.751732
1.296500	1.750458
1.297000	1.750458
1.297500	1.751732
1.298000	1.750458
1.298500	1.751413
1.299000	1.751413
1.299500	1.750776
1.300000	1.751413
1.300500	1.752050
1.301000	1.750776
1.301500	1.751732
1.302000	1.751413
1.302500	1.750139
1.303000	1.752050
1.303500	1.751413
1.304000	1.751095
1.304500	1.751732
1.305000	1.751095
1.305500	1.751095
1.306000	1.751732
1.306500	1.751095
1.307000	1.750776
1.307500	1.752050
1.308000	1.750776
1.308500	1.750139
1.309000	1.751413
1.309500	1.750776
1.310000	1.751732
1.310500	1.752050
1.311000	1.751095
1.311500	1.750776
1.312000	1.752050
1.312500	1.751413
1.313000	1.750776
1.313500	1.751095
1.314000	1.751413
1.314500	1.751413
1.315000	1.751413
1.315500	1.750776
1.316000	1.752050
1.316500	1.751732
1.317000	1.750139
1.317500	1.752050
1.318000	1.751413
1.318500	1.752050
1.319000	1.751413
1.319500	1.750776
1.320000	1.751095
1.320500	1.751413
1.321000	1.751732
1.321500	1.751095
1.322000	1.751413
1.322500	1.751095
1.323000	1.751095
1.323500	1.751732
1.324000	1.751095
1.324500	1.750776
1.325000	1.751413
1.325500	1.750458
1.326000	1.751413
1.326500	1.751413
1.327000	1.750458
1.327500	1.751413
1.328000	1.751732
1.328500	1.751095
1.329000	1.750139
1.329500	1.751095
1.330000	1.750776
1.330500	1.750776
1.331000	1.751413
1.331500	1.751095
1.332000	1.750776
1.332500	1.751413
1.333000	1.750776
1.333500	1.751732
1.334000	1.750458
1.334500	1.750139
1.335000	1.751413
1.335500	1.751095
1.336000	1.749821
1.336500	1.751732
1.337000	1.751095
1.337500	1.751413
1.338000	1.751413
1.338500	1.750776
1.339000	1.750776
1.339500	1.752687
1.340000	1.750776
1.340500	1.750139
1.341000	1.751095
1.341500	1.752050
1.342000	1.751413
1.342500	1.750776
1.343000	1.750458
1.343500	1.751095
1.344000	1.751732
1.344500	1.750458
1.345000	1.750776
1.345500	1.750458
1.346000	1.750458
1.346500	1.751095
1.347000	1.751095
1.347500	1.750139
1.348000	1.751732
1.348500	1.751413
1.349000	1.750458
1.349500	1.751732
1.350000	1.751095
1.350500	1.750776
1.351000	1.751413
1.351500	1.751095
1.352000	1.750776
1.352500	1.751413
1.353000	1.751095
1.353500	1.750776
1.354000	1.751095
1.354500	1.750776
1.355000	1.750458
1.355500	1.751413
1.356000	1.751095
1.356500	1.749821
1.357000	1.751413
1.357500	1.750776
1.358000	1.751095
1.358500	1.752050
1.359000	1.750776
1.359500	1.750776
1.360000	1.751732
1.360500	1.751413
1.361000	1.750776
1.361500	1.751413
1.362000	1.751095
1.362500	1.751413
1.363000	1.751413
1.363500	1.750776
1.364000	1.751413
1.364500	1.751413
1.365000	1.751095
1.365500	1.751413
1.366000	1.750776
1.366500	1.750776
1.367000	1.751732
1.367500	1.751732
1.368000	1.750458
1.368500	1.752050
1.369000	1.751413
1.369500	1.751095
1.370000	1.751095
1.370500	1.751095
1.371000	1.751095
1.371500	1.752687
1.372000	1.751095
1.372500	1.750458
1.373000	1.751732
1.373500	1.751413
1.374000	1.751732
1.374500	1.751732
1.375000	1.750458
1.375500	1.751732
1.376000	1.751413
1.376500	1.751095
1.377000	1.750776
1.377500	1.751095
1.378000	1.750776
1.378500	1.750776
1.379000	1.751413
1.379500	1.750776
1.380000	1.752050
1.380500	1.752050
1.381000	1.750776
1.381500	1.750776
1.382000	1.751413
1.382500	1.750776
1.383000	1.751413
1.383500	1.751095
1.384000	1.750776
1.384500	1.750776
1.385000	1.751095
1.385500	1.751095
1.386000	1.751413
1.386500	1.750776
1.387000	1.750458
1.387500	1.751732
1.388000	1.751413
1.388500	1.750776
1.389000	1.751095
1.389500	1.751413
1.390000	1.751413
1.390500	1.751732
1.391000	1.750139
1.391500	1.751095
1.392000	1.752369
1.392500	1.751095
1.393000	1.750458
1.393500	1.750776
1.394000	1.750776
1.394500	1.751413
1.395000	1.751095
1.395500	1.749821
1.396000	1.750776
1.396500	1.752050
1.397000	1.750776
1.397500	1.751413
1.398000	1.750458
1.398500	1.751095
1.399000	1.752050
1.399500	1.750776
1.400000	1.749502
1.400500	1.751732
1.401000	1.751732
1.401500	1.750776
1.402000	1.751413
1.402500	1.751095
1.403000	1.750776
1.403500	1.751413
1.404000	1.750139
1.404500	1.750458
1.405000	1.751413
1.405500	1.750776
1.406000	1.751413
1.406500	1.751413
1.407000	1.751095
1.407500	1.750776
1.408000	1.752687
1.408500	1.751413
1.409000	1.750776
1.409500	1.751413
1.410000	1.751095
1.410500	1.750458
1.411000	1.751732
1.411500	1.751413
1.412000	1.751095
1.412500	1.751413
1.413000	1.751413
1.413500	1.751413
1.414000	1.751413
1.414500	1.750139
1.415000	1.751413
1.415500	1.752050
1.416000	1.750139
1.416500	1.751095
1.417000	1.751413
1.417500	1.750776
1.418000	1.752050
1.418500	1.750776
1.419000	1.750776
1.419500	1.751732
1.420000	1.750776
1.420500	1.751095
1.421000	1.751095
1.421500	1.751413
1.422000	1.751413
1.422500	1.752050
1.423000	1.750776
1.423500	1.751095
1.424000	1.752050
1.424500	1.751095
1.425000	1.750776
1.425500	1.751732
1.426000	1.751095
1.426500	1.751413
1.427000	1.750776
1.427500	1.750458
1.428000	1.751413
1.428500	1.751413
1.429000	1.750776
1.429500	1.750776
1.430000	1.751413
1.430500	1.750776
1.431000	1.751095
1.431500	1.751095
1.432000	1.750776
1.432500	1.751095
1.433000	1.751095
1.433500	1.750776
1.434000	1.750776
1.434500	1.751095
1.435000	1.750458
1.435500	1.751095
1.436000	1.751413
1.436500	1.749502
1.437000	1.750139
1.437500	1.751413
1.438000	1.751413
1.438500	1.751413
1.439000	1.750776
1.439500	1.749821
1.440000	1.751095
1.440500	1.751095
1.441000	1.750458
1.441500	1.751095
1.442000	1.750458
1.442500	1.751095
1.443000	1.750458
1.443500	1.750139
1.444000	1.749821
1.444500	1.751413
1.445000	1.750776
1.445500	1.749821
1.446000	1.750458
1.446500	1.751095
1.447000	1.750458
1.447500	1.750776
1.448000	1.750139
1.448500	1.750776
1.449000	1.750776
1.449500	1.751095
1.450000	1.750458
1.450500	1.750776
1.451000	1.751095
1.451500	1.750776
1.452000	1.750458
1.452500	1.749502
1.453000	1.751095
1.453500	1.751732
1.454000	1.750458
1.454500	1.750458
1.455000	1.750776
1.455500	1.751413
1.456000	1.751413
1.456500	1.750776
1.457000	1.750776
1.457500	1.751413
1.458000	1.751095
1.458500	1.750458
1.459000	1.750776
1.459500	1.751413
1.460000	1.750458
1.460500	1.750458
1.461000	1.751095
1.461500	1.749821
1.462000	1.751095
1.462500	1.750776
1.463000	1.751413
1.463500	1.750458
1.464000	1.750139
1.464500	1.750139
1.465000	1.751413
1.465500	1.750776
1.466000	1.750776
1.466500	1.750458
1.467000	1.751095
1.467500	1.751095
1.468000	1.752050
1.468500	1.750139
1.469000	1.751095
1.469500	1.750776
1.470000	1.752050
1.470500	1.750776
1.471000	1.750776
1.471500	1.750458
1.472000	1.751095
1.472500	1.750776
1.473000	1.749821
1.473500	1.750776
1.474000	1.751413
1.474500	1.751413
1.475000	1.751413
1.475500	1.751095
1.476000	1.751095
1.476500	1.752050
1.477000	1.751413
1.477500	1.749821
1.478000	1.751095
1.478500	1.751413
1.479000	1.752050
1.479500	1.751095
1.480000	1.750776
1.480500	1.750776
1.481000	1.751732
1.481500	1.750458
1.482000	1.750776
1.482500	1.752050
1.483000	1.751095
1.483500	1.751095
1.484000	1.751732
1.484500	1.751413
1.485000	1.750776
1.485500	1.752050
1.486000	1.751413
1.486500	1.750776
1.487000	1.751413
1.487500	1.751095
1.488000	1.750776
1.488500	1.751413
1.489000	1.751095
1.489500	1.751732
1.490000	1.750776
1.490500	1.750458
1.491000	1.752050
1.491500	1.751732
1.492000	1.750776
1.492500	1.752050
1.493000	1.751095
1.493500	1.751095
1.494000	1.750776
1.494500	1.751413
1.495000	1.751732
1.495500	1.751732
1.496000	1.750776
1.496500	1.751732
1.497000	1.751732
1.497500	1.751732
1.498000	1.750458
1.498500	1.751413
1.499000	1.751413
1.499500	1.752050
1.500000	1.751413
1.500500	1.750776
1.501000	1.751413
1.501500	1.751413
1.502000	1.751732
1.502500	1.750458
1.503000	1.750776
1.503500	1.751413
1.504000	1.751413
1.504500	1.751413
1.505000	1.751413
1.505500	1.751732
1.506000	1.752050
1.506500	1.750776
1.507000	1.751413
1.507500	1.751413
1.508000	1.750776
1.508500	1.751732
1.509000	1.750776
1.509500	1.750776
1.510000	1.750776
1.510500	1.752050
1.511000	1.750776
1.511500	1.751732
1.512000	1.750776
1.512500	1.751413
1.513000	1.752050
1.513500	1.751095
1.514000	1.750776
1.514500	1.751095
1.515000	1.751095
1.515500	1.750776
1.516000	1.751413
1.516500	1.750776
1.517000	1.751095
1.517500	1.751732
1.518000	1.750776
1.518500	1.751095
1.519000	1.750458
1.519500	1.750458
1.520000	1.751413
1.520500	1.751413
1.521000	1.750458
1.521500	1.750776
1.522000	1.752050
1.522500	1.752050
1.523000	1.752050
1.523500	1.751095
1.524000	1.751095
1.524500	1.751413
1.525000	1.751413
1.525500	1.750776
1.526000	1.751732
1.526500	1.752050
1.527000	1.751413
1.527500	1.750776
1.528000	1.751413
1.528500	1.752050
1.529000	1.752050
1.529500	1.750776
1.530000	1.750458
1.530500	1.751732
1.531000	1.751413
1.531500	1.750776
1.532000	1.751413
1.532500	1.750776
1.533000	1.751413
1.533500	1.751413
1.534000	1.751095
1.534500	1.750458
1.535000	1.751413
1.535500	1.750458
1.536000	1.750776
1.536500	1.750776
1.537000	1.750458
1.537500	1.750776
1.538000	1.751732
1.538500	1.751732
1.539000	1.750139
1.539500	1.752050
1.540000	1.750458
1.540500	1.751413
1.541000	1.751095
1.541500	1.750776
1.542000	1.750776
1.542500	1.751413
1.543000	1.751095
1.543500	1.750776
1.544000	1.751413
1.544500	1.750458
1.545000	1.751413
1.545500	1.750776
1.546000	1.750776
1.546500	1.750776
1.547000	1.750776
1.547500	1.750776
1.548000	1.751732
1.548500	1.750776
1.549000	1.750458
1.549500	1.751095
1.550000	1.750776
1.550500	1.750139
1.551000	1.751413
1.551500	1.751095
1.552000	1.750458
1.552500	1.751095
1.553000	1.750139
1.553500	1.750139
1.554000	1.751413
1.554500	1.750776
1.555000	1.750458
1.555500	1.750776
1.556000	1.751095
1.556500	1.750776
1.557000	1.751413
1.557500	1.750458
1.558000	1.750458
1.558500	1.751732
1.559000	1.750458
1.559500	1.750776
1.560000	1.751413
1.560500	1.750458
1.561000	1.751095
1.561500	1.750458
1.562000	1.749502
1.562500	1.750458
1.563000	1.751413
1.563500	1.750139
1.564000	1.750776
1.564500	1.750776
1.565000	1.750139
1.565500	1.750139
1.566000	1.750458
1.566500	1.749502
1.567000	1.750776
1.567500	1.750458
1.568000	1.750458
1.568500	1.750139
1.569000	1.750139
1.569500	1.750458
1.570000	1.750776
1.570500	1.750458
1.571000	1.749821
1.571500	1.750139
1.572000	1.750458
1.572500	1.750458
1.573000	1.750776
1.573500	1.750458
1.574000	1.750139
1.574500	1.751413
1.575000	1.750458
1.575500	1.750139
1.576000	1.749821
1.576500	1.749821
1.577000	1.751095
1.577500	1.751732
1.578000	1.749821
1.578500	1.750776
1.579000	1.751413
1.579500	1.750776
1.580000	1.750776
1.580500	1.749821
1.581000	1.750776
1.581500	1.751095
1.582000	1.751095
1.582500	1.750139
1.583000	1.751095
1.583500	1.751413
1.584000	1.750458
1.584500	1.751413
1.585000	1.750776
1.585500	1.750776
1.586000	1.751095
1.586500	1.750776
1.587000	1.750139
1.587500	1.751413
1.588000	1.751732
1.588500	1.750776
1.589000	1.751413
1.589500	1.750458
1.590000	1.751413
1.590500	1.752050
1.591000	1.751413
1.591500	1.750458
1.592000	1.752050
1.592500	1.751095
1.593000	1.751095
1.593500	1.751732
1.594000	1.751095
1.594500	1.751413
1.595000	1.751732
1.595500	1.750776
1.596000	1.751732
1.596500	1.751732
1.597000	1.750776
1.597500	1.750776
1.598000	1.752050
1.598500	1.751413
1.599000	1.751095
1.599500	1.752050
1.600000	1.751732
1.600500	1.751413
1.601000	1.750776
1.601500	1.750458
1.602000	1.751732
1.602500	1.752687
1.603000	1.750776
1.603500	1.751413
1.604000	1.751732
1.604500	1.750776
1.605000	1.751095
1.605500	1.750458
1.606000	1.751095
1.606500	1.752050
1.607000	1.752050
1.607500	1.750458
1.608000	1.751095
1.608500	1.751732
1.609000	1.751413
1.609500	1.751732
1.610000	1.751095
1.610500	1.751413
1.611000	1.752687
1.611500	1.751413
1.612000	1.750458
1.612500	1.752050
1.613000	1.752050
1.613500	1.751732
1.614000	1.751095
1.614500	1.751413
1.615000	1.751095
1.615500	1.752050
1.616000	1.751095
1.616500	1.750458
1.617000	1.751732
1.617500	1.751413
1.618000	1.751413
1.618500	1.750776
1.619000	1.750458
1.619500	1.750776
1.620000	1.752050
1.620500	1.750776
1.621000	1.750776
1.621500	1.750458
1.622000	1.750776
1.622500	1.752050
1.623000	1.751095
1.623500	1.750458
1.624000	1.751413
1.624500	1.750776
1.625000	1.751095
1.625500	1.751413
1.626000	1.750776
1.626500	1.749821
1.627000	1.751095
1.627500	1.751095
1.628000	1.750458
1.628500	1.750458
1.629000	1.751095
1.629500	1.751095
1.630000	1.751732
1.630500	1.749821
1.631000	1.750139
1.631500	1.751413
1.632000	1.750776
1.632500	1.749821
1.633000	1.750458
1.633500	1.750776
1.634000	1.751413
1.634500	1.751413
1.635000	1.750139
1.635500	1.750776
1.636000	1.752050
1.636500	1.750776
1.637000	1.749821
1.637500	1.751095
1.638000	1.750139
1.638500	1.751413
1.639000	1.750458
1.639500	1.750776
1.640000	1.751095
1.640500	1.752050
1.641000	1.750776
1.641500	1.750458
1.642000	1.751413
1.642500	1.750139
1.643000	1.750458
1.643500	1.750776
1.644000	1.749821
1.644500	1.751095
1.645000	1.751095
1.645500	1.751095
1.646000	1.751413
1.646500	1.751095
1.647000	1.749821
1.647500	1.751732
1.648000	1.751095
1.648500	1.750139
1.649000	1.751732
1.649500	1.750776
1.650000	1.750776
1.650500	1.750776
1.651000	1.750458
1.651500	1.750458
1.652000	1.751095
1.652500	1.750776
1.653000	1.750458
1.653500	1.751095
1.654000	1.751095
1.654500	1.751413
1.655000	1.751732
1.655500	1.751095
1.656000	1.751095
1.656500	1.751413
1.657000	1.751095
1.657500	1.749821
1.658000	1.750776
1.658500	1.750458
1.659000	1.751095
1.659500	1.752050
1.660000	1.750458
1.660500	1.750776
1.661000	1.751413
1.661500	1.750776
1.662000	1.750776
1.662500	1.751732
1.663000	1.750458
1.663500	1.751732
1.664000	1.751095
1.664500	1.750458
1.665000	1.752050
1.665500	1.752050
1.666000	1.751095
1.666500	1.751413
1.667000	1.751095
1.667500	1.750776
1.668000	1.751732
1.668500	1.750776
1.669000	1.749502
1.669500	1.751732
1.670000	1.751413
1.670500	1.751095
1.671000	1.751413
1.671500	1.751095
1.672000	1.751095
1.672500	1.751732
1.673000	1.750776
1.673500	1.750458
1.674000	1.751413
1.674500	1.751413
1.675000	1.751413
1.675500	1.751095
1.676000	1.751413
1.676500	1.750776
1.677000	1.752050
1.677500	1.750458
1.678000	1.751413
1.678500	1.750776
1.679000	1.749821
1.679500	1.751095
1.680000	1.751413
1.680500	1.750776
1.681000	1.751095
1.681500	1.751732
1.682000	1.750458
1.682500	1.751095
1.683000	1.750776
1.683500	1.750139
1.684000	1.752050
1.684500	1.750458
1.685000	1.750776
1.685500	1.751413
1.686000	1.751413
1.686500	1.751095
1.687000	1.751413
1.687500	1.751732
1.688000	1.750458
1.688500	1.750776
1.689000	1.750776
1.689500	1.749502
1.690000	1.750776
1.690500	1.750139
1.691000	1.750776
1.691500	1.750776
1.692000	1.749821
1.692500	1.750458
1.693000	1.751413
1.693500	1.750139
1.694000	1.750458
1.694500	1.751095
1.695000	1.751413
1.695500	1.750139
1.696000	1.750776
1.696500	1.750458
1.697000	1.750776
1.697500	1.752050
1.698000	1.750776
1.698500	1.751095
1.699000	1.751413
1.699500	1.750776
1.700000	1.751413
1.700500	1.750776
1.701000	1.750458
1.701500	1.751413
1.702000	1.752050
1.702500	1.750139
1.703000	1.751095
1.703500	1.750776
1.704000	1.750139
1.704500	1.751095
1.705000	1.750776
1.705500	1.750776
1.706000	1.750776
1.706500	1.750458
1.707000	1.751095
1.707500	1.751732
1.708000	1.751095
1.708500	1.750776
1.709000	1.751732
1.709500	1.750776
1.710000	1.751095
1.710500	1.750776
1.711000	1.750776
1.711500	1.751413
1.712000	1.751413
1.712500	1.750458
1.713000	1.750776
1.713500	1.751732
1.714000	1.750776
1.714500	1.750776
1.715000	1.750776
1.715500	1.750776
1.716000	1.752050
1.716500	1.750776
1.717000	1.749821
1.717500	1.751413
1.718000	1.751095
1.718500	1.752050
1.719000	1.750776
1.719500	1.750776
1.720000	1.751095
1.720500	1.751732
1.721000	1.750139
1.721500	1.750139
1.722000	1.751413
1.722500	1.751732
1.723000	1.751413
1.723500	1.751732
1.724000	1.750458
1.724500	1.751413
1.725000	1.752050
1.725500	1.751413
1.726000	1.751413
1.726500	1.752050
1.727000	1.750776
1.727500	1.751095
1.728000	1.751095
1.728500	1.750776
1.729000	1.751413
1.729500	1.752050
1.730000	1.751732
1.730500	1.751413
1.731000	1.751413
1.731500	1.751095
1.732000	1.751732
1.732500	1.751413
1.733000	1.750776
1.733500	1.751732
1.734000	1.751413
1.734500	1.751413
1.735000	1.752369
1.735500	1.751413
1.736000	1.751095
1.736500	1.752050
1.737000	1.752050
1.737500	1.750776
1.738000	1.751732
1.738500	1.751413
1.739000	1.751732
1.739500	1.752050
1.740000	1.750458
1.740500	1.751095
1.741000	1.752369
1.741500	1.752050
1.742000	1.750776
1.742500	1.752050
1.743000	1.751732
1.743500	1.751732
1.744000	1.752050
1.744500	1.750458
1.745000	1.751732
1.745500	1.752687
1.746000	1.752050
1.746500	1.751413
1.747000	1.751732
1.747500	1.751732
1.748000	1.752050
1.748500	1.750776
1.749000	1.750776
1.749500	1.751413
1.750000	1.752050
1.750500	1.751413
1.751000	1.751732
1.751500	1.751413
1.752000	1.750776
1.752500	1.751732
1.753000	1.751413
1.753500	1.751095
1.754000	1.751413
1.754500	1.751413
1.755000	1.751732
1.755500	1.752050
1.756000	1.750776
1.756500	1.751413
1.757000	1.752050
1.757500	1.750776
1.758000	1.751413
1.758500	1.750458
1.759000	1.751413
1.759500	1.751095
1.760000	1.751413
1.760500	1.751095
1.761000	1.751413
1.761500	1.752369
1.762000	1.750139
1.762500	1.751732
1.763000	1.750458
1.763500	1.750776
1.764000	1.751732
1.764500	1.752050
1.765000	1.750776
1.765500	1.751732
1.766000	1.751732
1.766500	1.751095
1.767000	1.751413
1.767500	1.750776
1.768000	1.750776
1.768500	1.751732
1.769000	1.751732
1.769500	1.750458
1.770000	1.751413
1.770500	1.751413
1.771000	1.751095
1.771500	1.751413
1.772000	1.751413
1.772500	1.751413
1.773000	1.752050
1.773500	1.751095
1.774000	1.750139
1.774500	1.751095
1.775000	1.751732
1.775500	1.752050
1.776000	1.751413
1.776500	1.750776
1.777000	1.751413
1.777500	1.752050
1.778000	1.751732
1.778500	1.750458
1.779000	1.751095
1.779500	1.752050
1.780000	1.751095
1.780500	1.751413
1.781000	1.751413
1.781500	1.751095
1.782000	1.751732
1.782500	1.751413
1.783000	1.751413
1.783500	1.751732
1.784000	1.750776
1.784500	1.751413
1.785000	1.751413
1.785500	1.751095
1.786000	1.751413
1.786500	1.751732
1.787000	1.751413
1.787500	1.751732
1.788000	1.750776
1.788500	1.750776
1.789000	1.751732
1.789500	1.750776
1.790000	1.750776
1.790500	1.751732
1.791000	1.750458
1.791500	1.750776
1.792000	1.751413
1.792500	1.750458
1.793000	1.751413
1.793500	1.751732
1.794000	1.751732
1.794500	1.751095
1.795000	1.752050
1.795500	1.751732
1.796000	1.752050
1.796500	1.751413
1.797000	1.750776
1.797500	1.751413
1.798000	1.752687
1.798500	1.752050
1.799000	1.751095
1.799500	1.751413
1.800000	1.751413
1.800500	1.751413
1.801000	1.751413
1.801500	1.751413
1.802000	1.751732
1.802500	1.752369
1.803000	1.751413
1.803500	1.751413
1.804000	1.751095
1.804500	1.752050
1.805000	1.752687
1.805500	1.751732
1.806000	1.750458
1.806500	1.751732
1.807000	1.752050
1.807500	1.751413
1.808000	1.751732
1.808500	1.751732
1.809000	1.751732
1.809500	1.752050
1.810000	1.751413
1.810500	1.751095
1.811000	1.752050
1.811500	1.751732
1.812000	1.751732
1.812500	1.752050
1.813000	1.751732
1.813500	1.751413
1.814000	1.752369
1.814500	1.751413
1.815000	1.752050
1.815500	1.752687
1.816000	1.751732
1.816500	1.752687
1.817000	1.752369
1.817500	1.751413
1.818000	1.751732
1.818500	1.752050
1.819000	1.752369
1.819500	1.752050
1.820000	1.751413
1.820500	1.751732
1.821000	1.752050
1.821500	1.751413
1.822000	1.750776
1.822500	1.751413
1.823000	1.752687
1.823500	1.752050
1.824000	1.751732
1.824500	1.751413
1.825000	1.752050
1.825500	1.752687
1.826000	1.752050
1.826500	1.751413
1.827000	1.751732
1.827500	1.752050
1.828000	1.752050
1.828500	1.752050
1.829000	1.751732
1.829500	1.752687
1.830000	1.752687
1.830500	1.752369
1.831000	1.751732
1.831500	1.752369
1.832000	1.751732
1.832500	1.752050
1.833000	1.752687
1.833500	1.751732
1.834000	1.751732
1.834500	1.753005
1.835000	1.751413
1.835500	1.752369
1.836000	1.752050
1.836500	1.751413
1.837000	1.752687
1.837500	1.752050
1.838000	1.751413
1.838500	1.752050
1.839000	1.752050
1.839500	1.752050
1.840000	1.751732
1.840500	1.751413
1.841000	1.751413
1.841500	1.752369
1.842000	1.751413
1.842500	1.751413
1.843000	1.752050
1.843500	1.751732
1.844000	1.752050
1.844500	1.752687
1.845000	1.751413
1.845500	1.751413
1.846000	1.753324
1.846500	1.752050
1.847000	1.751732
1.847500	1.752687
1.848000	1.752050
1.848500	1.752687
1.849000	1.752050
1.849500	1.750776
1.850000	1.751413
1.850500	1.752687
1.851000	1.751413
1.851500	1.751413
1.852000	1.752050
1.852500	1.751413
1.853000	1.753005
1.853500	1.752050
1.854000	1.751413
1.854500	1.752050
1.855000	1.752369
1.855500	1.751413
1.856000	1.752050
1.856500	1.751413
1.857000	1.751732
1.857500	1.752050
1.858000	1.751732
1.858500	1.751413
1.859000	1.752369
1.859500	1.752050
1.860000	1.751095
1.860500	1.751095
1.861000	1.752050
1.861500	1.751413
1.862000	1.751413
1.862500	1.751095
1.863000	1.750458
1.863500	1.751732
1.864000	1.751732
1.864500	1.751732
1.865000	1.752369
1.865500	1.751413
1.866000	1.751732
1.866500	1.752050
1.867000	1.751732
1.867500	1.751095
1.868000	1.751413
1.868500	1.751413
1.869000	1.751413
1.869500	1.752369
1.870000	1.750776
1.870500	1.751095
1.871000	1.751732
1.871500	1.751732
1.872000	1.751732
1.872500	1.751095
1.873000	1.751732
1.873500	1.751413
1.874000	1.751413
1.874500	1.750776
1.875000	1.751095
1.875500	1.752369
1.876000	1.751732
1.876500	1.751095
1.877000	1.751095
1.877500	1.751413
1.878000	1.752369
1.878500	1.752050
1.879000	1.750458
1.879500	1.751095
1.880000	1.752687
1.880500	1.751095
1.881000	1.751732
1.881500	1.750776
1.882000	1.751413
1.882500	1.752050
1.883000	1.751413
1.883500	1.750458
1.884000	1.752050
1.884500	1.751732
1.885000	1.751095
1.885500	1.752050
1.886000	1.751413
1.886500	1.751732
1.887000	1.752050
1.887500	1.751413
1.888000	1.751095
1.888500	1.752369
1.889000	1.751413
1.889500	1.751413
1.890000	1.752050
1.890500	1.751413
1.891000	1.752050
1.891500	1.752050
1.892000	1.751413
1.892500	1.752369
1.893000	1.752050
1.893500	1.750776
1.894000	1.752050
1.894500	1.752369
1.895000	1.751413
1.895500	1.751732
1.896000	1.752687
1.896500	1.752050
1.897000	1.752050
1.897500	1.751732
1.898000	1.751095
1.898500	1.752050
1.899000	1.752687
1.899500	1.752050
1.900000	1.752050
1.900500	1.752050
1.901000	1.751732
1.901500	1.752050
1.902000	1.751413
1.902500	1.751413
1.903000	1.752687
1.903500	1.751095
1.904000	1.751413
1.904500	1.752369
1.905000	1.752369
1.905500	1.752369
1.906000	1.752369
1.906500	1.751732
1.907000	1.752050
1.907500	1.752687
1.908000	1.751413
1.908500	1.751413
1.909000	1.752050
1.909500	1.752050
1.910000	1.752687
1.910500	1.751732
1.911000	1.751732
1.911500	1.752050
1.912000	1.752687
1.912500	1.751732
1.913000	1.751732
1.913500	1.752369
1.914000	1.752050
1.914500	1.752050
1.915000	1.752050
1.915500	1.751732
1.916000	1.752369
1.916500	1.752687
1.917000	1.751413
1.917500	1.752369
1.918000	1.752050
1.918500	1.752050
1.919000	1.751732
1.919500	1.752687
1.920000	1.751732
1.920500	1.752050
1.921000	1.752050
1.921500	1.751732
1.922000	1.753005
1.922500	1.752050
1.923000	1.751413
1.923500	1.752687
1.924000	1.752050
1.924500	1.750776
1.925000	1.751732
1.925500	1.752369
1.926000	1.752050
1.926500	1.752687
1.927000	1.751413
1.927500	1.752050
1.928000	1.752687
1.928500	1.752050
1.929000	1.751413
1.929500	1.752050
1.930000	1.751732
1.930500	1.752687
1.931000	1.752050
1.931500	1.750776
1.932000	1.752369
1.932500	1.752687
1.933000	1.752050
1.933500	1.752050
1.934000	1.751413
1.934500	1.751732
1.935000	1.752369
1.935500	1.752050
1.936000	1.750776
1.936500	1.752050
1.937000	1.752687
1.937500	1.752050
1.938000	1.751413
1.938500	1.751732
1.939000	1.752050
1.939500	1.752369
1.940000	1.752050
1.940500	1.751413
1.941000	1.752369
1.941500	1.752050
1.942000	1.751413
1.942500	1.752050
1.943000	1.751413
1.943500	1.751413
1.944000	1.751732
1.944500	1.752050
1.945000	1.751413
1.945500	1.752050
1.946000	1.751413
1.946500	1.751732
1.947000	1.752687
1.947500	1.751732
1.948000	1.751732
1.948500	1.752687
1.949000	1.751732
1.949500	1.752050
1.950000	1.752050
1.950500	1.751413
1.951000	1.752050
1.951500	1.753005
1.952000	1.751732
1.952500	1.751413
1.953000	1.752050
1.953500	1.751095
1.954000	1.752050
1.954500	1.751413
1.955000	1.751732
1.955500	1.752369
1.956000	1.752050
1.956500	1.750776
1.957000	1.752050
1.957500	1.752050
1.958000	1.751732
1.958500	1.752050
1.959000	1.751095
1.959500	1.751732
1.960000	1.752369
1.960500	1.751732
1.961000	1.750776
1.961500	1.751732
1.962000	1.751732
1.962500	1.751732
1.963000	1.751413
1.963500	1.751095
1.964000	1.752369
1.964500	1.752687
1.965000	1.751413
1.965500	1.750776
1.966000	1.751095
1.966500	1.751413
1.967000	1.751732
1.967500	1.752050
1.968000	1.751732
1.968500	1.752050
1.969000	1.752687
1.969500	1.752050
1.970000	1.751413
1.970500	1.751413
1.971000	1.751413
1.971500	1.752050
1.972000	1.751732
1.972500	1.751413
1.973000	1.751732
1.973500	1.751732
1.974000	1.751732
1.974500	1.752050
1.975000	1.751413
1.975500	1.750776
1.976000	1.751732
1.976500	1.752050
1.977000	1.750776
1.977500	1.751413
1.978000	1.751095
1.978500	1.751413
1.979000	1.751413
1.979500	1.750776
1.980000	1.750458
1.980500	1.752687
1.981000	1.751732
1.981500	1.750776
1.982000	1.750776
1.982500	1.751095
1.983000	1.751413
1.983500	1.751413
1.984000	1.750139
1.984500	1.751413
1.985000	1.752369
1.985500	1.751095
1.986000	1.751095
1.986500	1.750776
1.987000	1.750458
1.987500	1.751732
1.988000	1.751095
1.988500	1.750458
1.989000	1.750776
1.989500	1.752050
1.990000	1.750458
1.990500	1.751413
1.991000	1.751413
1.991500	1.751095
1.992000	1.751413
1.992500	1.751413
1.993000	1.750776
1.993500	1.751095
1.994000	1.751413
1.994500	1.750776
1.995000	1.750776
1.995500	1.751413
1.996000	1.750139
1.996500	1.751413
1.997000	1.751095
1.997500	1.751413
1.998000	1.751413
1.998500	1.751095
1.999000	1.750776
1.999500	1.752050
2.000000	1.751413
2.000500	1.751095
2.001000	1.752050
2.001500	1.750776
2.002000	1.751413
2.002500	1.751413
2.003000	1.750776
2.003500	1.751732
2.004000	1.752369
2.004500	1.750776
2.005000	1.751413
2.005500	1.751732
2.006000	1.751732
2.006500	1.750776
2.007000	1.751413
2.007500	1.750776
2.008000	1.752687
2.008500	1.751413
2.009000	1.750458
2.009500	1.751732
2.010000	1.752687
2.010500	1.751413
2.011000	1.751095
2.011500	1.751095
2.012000	1.751413
2.012500	1.752050
2.013000	1.751413
2.013500	1.750458
2.014000	1.752050
2.014500	1.751732
2.015000	1.752050
2.015500	1.751413
2.016000	1.751413
2.016500	1.751413
2.017000	1.751095
2.017500	1.750458
2.018000	1.750776
2.018500	1.751732
2.019000	1.751732
2.019500	1.750776
2.020000	1.751732
2.020500	1.751732
2.021000	1.751413
2.021500	1.752369
2.022000	1.750458
2.022500	1.751095
2.023000	1.751095
2.023500	1.750776
2.024000	1.751095
2.024500	1.751095
2.025000	1.751732
2.025500	1.751095
2.026000	1.751732
2.026500	1.750776
2.027000	1.750776
2.027500	1.751413
2.028000	1.749821
2.028500	1.752050
2.029000	1.751413
2.029500	1.750776
2.030000	1.751413
2.030500	1.751413
2.031000	1.751413
2.031500	1.752050
2.032000	1.751095
2.032500	1.750776
2.033000	1.752050
2.033500	1.750776
2.034000	1.751095
2.034500	1.750458
2.035000	1.751413
2.035500	1.751413
2.036000	1.752369
2.036500	1.749821
2.037000	1.750776
2.037500	1.751413
2.038000	1.751095
2.038500	1.751095
2.039000	1.751413
2.039500	1.751095
2.040000	1.751413
2.040500	1.751095
2.041000	1.749821
2.041500	1.750776
2.042000	1.752050
2.042500	1.751413
2.043000	1.751095
2.043500	1.750776
2.044000	1.751413
2.044500	1.752050
2.045000	1.751413
2.045500	1.750776
2.046000	1.751732
2.046500	1.751732
2.047000	1.750776
2.047500	1.751095
2.048000	1.751413
2.048500	1.752050
2.049000	1.751732
2.049500	1.750776
2.050000	1.751095
2.050500	1.751732
2.051000	1.751413
2.051500	1.750776
2.052000	1.751095
2.052500	1.750776
2.053000	1.751413
2.053500	1.752687
2.054000	1.751413
2.054500	1.750776
2.055000	1.751413
2.055500	1.750458
2.056000	1.751413
2.056500	1.751732
2.057000	1.750776
2.057500	1.750776
2.058000	1.751413
2.058500	1.751095
2.059000	1.751095
2.059500	1.750776
2.060000	1.750776
2.060500	1.752050
2.061000	1.752369
2.061500	1.750139
2.062000	1.751732
2.062500	1.751732
2.063000	1.751413
2.063500	1.753005
2.064000	1.751095
2.064500	1.752050
2.065000	1.753005
2.065500	1.751732
2.066000	1.751095
2.066500	1.751413
2.067000	1.752050
2.067500	1.752050
2.068000	1.752687
2.068500	1.751095
2.069000	1.751413
2.069500	1.753005
2.070000	1.750776
2.070500	1.751732
2.071000	1.752050
2.071500	1.751413
2.072000	1.752050
2.072500	1.751732
2.073000	1.751413
2.073500	1.752687
2.074000	1.752050
2.074500	1.751413
2.075000	1.752050
2.075500	1.751732
2.076000	1.751413
2.076500	1.752687
2.077000	1.752050
2.077500	1.751413
2.078000	1.752050
2.078500	1.752050
2.079000	1.752050
2.079500	1.752687
2.080000	1.751732
2.080500	1.750458
2.081000	1.752687
2.081500	1.751095
2.082000	1.751095
2.082500	1.751732
2.083000	1.751413
2.083500	1.752687
2.084000	1.751732
2.084500	1.750776
2.085000	1.751413
2.085500	1.752687
2.086000	1.751095
2.086500	1.752050
2.087000	1.751413
2.087500	1.750776
2.088000	1.752050
2.088500	1.751413
2.089000	1.750139
2.089500	1.751413
2.090000	1.751413
2.090500	1.751413
2.091000	1.752050
2.091500	1.750776
2.092000	1.751413
2.092500	1.752050
2.093000	1.751095
2.093500	1.751095
2.094000	1.751732
2.094500	1.751095
2.095000	1.751413
2.095500	1.752050
2.096000	1.750776
2.096500	1.751095
2.097000	1.752369
2.097500	1.751095
2.098000	1.751095
2.098500	1.751413
2.099000	1.750776
2.099500	1.752050
2.100000	1.750776
2.100500	1.750458
2.101000	1.751413
2.101500	1.752050
2.102000	1.751413
2.102500	1.751095
2.103000	1.751413
2.103500	1.751413
2.104000	1.751732
2.104500	1.750776
2.105000	1.750458
2.105500	1.751732
2.106000	1.751413
2.106500	1.752050
2.107000	1.751732
2.107500	1.750776
2.108000	1.751095
2.108500	1.751095
2.109000	1.750776
2.109500	1.751095
2.110000	1.751095
2.110500	1.750776
2.111000	1.752050
2.111500	1.752050
2.112000	1.750458
2.112500	1.751413
2.113000	1.751413
2.113500	1.750776
2.114000	1.750776
2.114500	1.750776
2.115000	1.751095
2.115500	1.751413
2.116000	1.751413
2.116500	1.750139
2.117000	1.751095
2.117500	1.751732
2.118000	1.751095
2.118500	1.751732
2.119000	1.751413
2.119500	1.751732
2.120000	1.751732
2.120500	1.751413
2.121000	1.750458
2.121500	1.751732
2.122000	1.751732
2.122500	1.752050
2.123000	1.752050
2.123500	1.750776
2.124000	1.751413
2.124500	1.752369
2.125000	1.750776
2.125500	1.750776
2.126000	1.752369
2.126500	1.751413
2.127000	1.750776
2.127500	1.751413
2.128000	1.751095
2.128500	1.752050
2.129000	1.752050
2.129500	1.751413
2.130000	1.751732
2.130500	1.751413
2.131000	1.750458
2.131500	1.751095
2.132000	1.751732
2.132500	1.751413
2.133000	1.751413
2.133500	1.752050
2.134000	1.752050
2.134500	1.751413
2.135000	1.752050
2.135500	1.750776
2.136000	1.752050
2.136500	1.752050
2.137000	1.750776
2.137500	1.751413
2.138000	1.751732
2.138500	1.752050
2.139000	1.752050
2.139500	1.751413
2.140000	1.751732
2.140500	1.752687
2.141000	1.751732
2.141500	1.751732
2.142000	1.752050
2.142500	1.751732
2.143000	1.751413
2.143500	1.752687
2.144000	1.751413
2.144500	1.752369
2.145000	1.753324
2.145500	1.751732
2.146000	1.750776
2.146500	1.752050
2.147000	1.752369
2.147500	1.752050
2.148000	1.752687
2.148500	1.750458
2.149000	1.752050
2.149500	1.752369
2.150000	1.751095
2.150500	1.752687
2.151000	1.752369
2.151500	1.752050
2.152000	1.752687
2.152500	1.751732
2.153000	1.752050
2.153500	1.752687
2.154000	1.752369
2.154500	1.751732
2.155000	1.752050
2.155500	1.751732
2.156000	1.752050
2.156500	1.753005
2.157000	1.752050
2.157500	1.752369
2.158000	1.752687
2.158500	1.751413
2.159000	1.752687
2.159500	1.752687
2.160000	1.752050
2.160500	1.752369
2.161000	1.753005
2.161500	1.752050
2.162000	1.752369
2.162500	1.752050
2.163000	1.751732
2.163500	1.752687
2.164000	1.752369
2.164500	1.751413
2.165000	1.752050
2.165500	1.752369
2.166000	1.752050
2.166500	1.752050
2.167000	1.752050
2.167500	1.752050
2.168000	1.753005
2.168500	1.752050
2.169000	1.751732
2.169500	1.753005
2.170000	1.753005
2.170500	1.753005
2.171000	1.753005
2.171500	1.752687
2.172000	1.752687
2.172500	1.753642
2.173000	1.752050
2.173500	1.752050
2.174000	1.752687
2.174500	1.752050
2.175000	1.752687
2.175500	1.752687
2.176000	1.752050
2.176500	1.752687
2.177000	1.753324
2.177500	1.752050
2.178000	1.752687
2.178500	1.753005
2.179000	1.751732
2.179500	1.753324
2.180000	1.752687
2.180500	1.752369
2.181000	1.751732
2.181500	1.751732
2.182000	1.752687
2.182500	1.753642
2.183000	1.752687
2.183500	1.752050
2.184000	1.752687
2.184500	1.753005
2.185000	1.752687
2.185500	1.752687
2.186000	1.752687
2.186500	1.752369
2.187000	1.752687
2.187500	1.752050
2.188000	1.752050
2.188500	1.752687
2.189000	1.752369
2.189500	1.752050
2.190000	1.751732
2.190500	1.751413
2.191000	1.752687
2.191500	1.752050
2.192000	1.751413
2.192500	1.752050
2.193000	1.752687
2.193500	1.752687
2.194000	1.753005
2.194500	1.752050
2.195000	1.752687
2.195500	1.753324
2.196000	1.752687
2.196500	1.751732
2.197000	1.752050
2.197500	1.752050
2.198000	1.752050
2.198500	1.752687
2.199000	1.751732
2.199500	1.751732
2.200000	1.752369
2.200500	1.752369
2.201000	1.752050
2.201500	1.752369
2.202000	1.752050
2.202500	1.752050
2.203000	1.751732
2.203500	1.751413
2.204000	1.751413
2.204500	1.752369
2.205000	1.751732
2.205500	1.752369
2.206000	1.751732
2.206500	1.751095
2.207000	1.752369
2.207500	1.752050
2.208000	1.751413
2.208500	1.752050
2.209000	1.751732
2.209500	1.752050
2.210000	1.752687
2.210500	1.752369
2.211000	1.751413
2.211500	1.752369
2.212000	1.752050
2.212500	1.752369
2.213000	1.751732
2.213500	1.751732
2.214000	1.752050
2.214500	1.753005
2.215000	1.751732
2.215500	1.751732
2.216000	1.753005
2.216500	1.752050
2.217000	1.751413
2.217500	1.752050
2.218000	1.751732
2.218500	1.752050
2.219000	1.752050
2.219500	1.750776
2.220000	1.752687
2.220500	1.753324
2.221000	1.752050
2.221500	1.752050
2.222000	1.751732
2.222500	1.752369
2.223000	1.752687
2.223500	1.751732
2.224000	1.751413
2.224500	1.752369
2.225000	1.752369
2.225500	1.751732
2.226000	1.752369
2.226500	1.751732
2.227000	1.752050
2.227500	1.752687
2.228000	1.751413
2.228500	1.750776
2.229000	1.752369
2.229500	1.752687
2.230000	1.751732
2.230500	1.752369
2.231000	1.752050
2.231500	1.751413
2.232000	1.752050
2.232500	1.751732
2.233000	1.752050
2.233500	1.752687
2.234000	1.752050
2.234500	1.752687
2.235000	1.752687
2.235500	1.750776
2.236000	1.751413
2.236500	1.752687
2.237000	1.751413
2.237500	1.751413
2.238000	1.752050
2.238500	1.751732
2.239000	1.752369
2.239500	1.751413
2.240000	1.751413
2.240500	1.752369
2.241000	1.752050
2.241500	1.752369
2.242000	1.752050
2.242500	1.751732
2.243000	1.752369
2.243500	1.753324
2.244000	1.751732
2.244500	1.750458
2.245000	1.752050
2.245500	1.752050
2.246000	1.752050
2.246500	1.752687
2.247000	1.751732
2.247500	1.752369
2.248000	1.753005
2.248500	1.751413
2.249000	1.751413
2.249500	1.751413
2.250000	1.752050
2.250500	1.752687
2.251000	1.752687
2.251500	1.751413
2.252000	1.753005
2.252500	1.752050
2.253000	1.752369
2.253500	1.752050
2.254000	1.752369
2.254500	1.751732
2.255000	1.752050
2.255500	1.752050
2.256000	1.752369
2.256500	1.752687
2.257000	1.752687
2.257500	1.751732
2.258000	1.752369
2.258500	1.752050
2.259000	1.751732
2.259500	1.753005
2.260000	1.753005
2.260500	1.752050
2.261000	1.752369
2.261500	1.752050
2.262000	1.752369
2.262500	1.752687
2.263000	1.751732
2.263500	1.751732
2.264000	1.753324
2.264500	1.752050
2.265000	1.752050
2.265500	1.751095
2.266000	1.751413
2.266500	1.752369
2.267000	1.752687
2.267500	1.751095
2.268000	1.751095
2.268500	1.752369
2.269000	1.752050
2.269500	1.752050
2.270000	1.752687
2.270500	1.752050
2.271000	1.752369
2.271500	1.752050
2.272000	1.751095
2.272500	1.752050
2.273000	1.752369
2.273500	1.752050
2.274000	1.752687
2.274500	1.751732
2.275000	1.752369
2.275500	1.752687
2.276000	1.751413
2.276500	1.751413
2.277000	1.752050
2.277500	1.751732
2.278000	1.751413
2.278500	1.752050
2.279000	1.752050
2.279500	1.752687
2.280000	1.751413
2.280500	1.752050
2.281000	1.752050
2.281500	1.752369
2.282000	1.751413
2.282500	1.752050
2.283000	1.752050
2.283500	1.751732
2.284000	1.751732
2.284500	1.752050
2.285000	1.751095
2.285500	1.751732
2.286000	1.751732
2.286500	1.750776
2.287000	1.752050
2.287500	1.752687
2.288000	1.751413
2.288500	1.751413
2.289000	1.752687
2.289500	1.750776
2.290000	1.751732
2.290500	1.751095
2.291000	1.751413
2.291500	1.751413
2.292000	1.752369
2.292500	1.751413
2.293000	1.751413
2.293500	1.751413
2.294000	1.752050
2.294500	1.752050
2.295000	1.751413
2.295500	1.750776
2.296000	1.752369
2.296500	1.751095
2.297000	1.751095
2.297500	1.751095
2.298000	1.751413
2.298500	1.752050
2.299000	1.752050
2.299500	1.751095
2.300000	1.752050
2.300500	1.753005
2.301000	1.751095
2.301500	1.751413
2.302000	1.752687
2.302500	1.751095
2.303000	1.751732
2.303500	1.752050
2.304000	1.751413
2.304500	1.752050
2.305000	1.752050
2.305500	1.751413
2.306000	1.750776
2.306500	1.752050
2.307000	1.751413
2.307500	1.751095
2.308000	1.751095
2.308500	1.750458
2.309000	1.751413
2.309500	1.751732
2.310000	1.750776
2.310500	1.751095
2.311000	1.751413
2.311500	1.751095
2.312000	1.752369
2.312500	1.751732
2.313000	1.750458
2.313500	1.751413
2.314000	1.751095
2.314500	1.751095
2.315000	1.752050
2.315500	1.750458
2.316000	1.751413
2.316500	1.752050
2.317000	1.751095
2.317500	1.751732
2.318000	1.751732
2.318500	1.751413
2.319000	1.752369
2.319500	1.751732
2.320000	1.750776
2.320500	1.752050
2.321000	1.752050
2.321500	1.752050
2.322000	1.751732
2.322500	1.751732
2.323000	1.751413
2.323500	1.752050
2.324000	1.751732
2.324500	1.750776
2.325000	1.752050
2.325500	1.751732
2.326000	1.750776
2.326500	1.751413
2.327000	1.750776
2.327500	1.751095
2.328000	1.752050
2.328500	1.751413
2.329000	1.750458
2.329500	1.751732
2.330000	1.752050
2.330500	1.750776
2.331000	1.751732
2.331500	1.751413
2.332000	1.751095
2.332500	1.751413
2.333000	1.750776
2.333500	1.750776
2.334000	1.752050
2.334500	1.751732
2.335000	1.752050
2.335500	1.752050
2.336000	1.751095
2.336500	1.751732
2.337000	1.751732
2.337500	1.750776
2.338000	1.752050
2.338500	1.751413
2.339000	1.751732
2.339500	1.751413
2.340000	1.751413
2.340500	1.751095
2.341000	1.752050
2.341500	1.751413
2.342000	1.750776
2.342500	1.751732
2.343000	1.751732
2.343500	1.750776
2.344000	1.752369
2.344500	1.751413
2.345000	1.751095
2.345500	1.751095
2.346000	1.751095
2.346500	1.751095
2.347000	1.751732
2.347500	1.751095
2.348000	1.751413
2.348500	1.752369
2.349000	1.751413
2.349500	1.750458
2.350000	1.752050
2.350500	1.751413
2.351000	1.752369
2.351500	1.751413
2.352000	1.750776
2.352500	1.752369
2.353000	1.752687
2.353500	1.751732
2.354000	1.750776
2.354500	1.751732
2.355000	1.752050
2.355500	1.752687
2.356000	1.752050
2.356500	1.751413
2.357000	1.753005
2.357500	1.752050
2.358000	1.751095
2.358500	1.752050
2.359000	1.752369
2.359500	1.751732
2.360000	1.752687
2.360500	1.751413
2.361000	1.751732
2.361500	1.752050
2.362000	1.753005
2.362500	1.752050
2.363000	1.752050
2.363500	1.751732
2.364000	1.751413
2.364500	1.752687
2.365000	1.751413
2.365500	1.752050
2.366000	1.751732
2.366500	1.751732
2.367000	1.752050
2.367500	1.752050
2.368000	1.751413
2.368500	1.751413
2.369000	1.752687
2.369500	1.753005
2.370000	1.752369
2.370500	1.752050
2.371000	1.752050
2.371500	1.753324
2.372000	1.753005
2.372500	1.751732
2.373000	1.751732
2.373500	1.753005
2.374000	1.752050
2.374500	1.751732
2.375000	1.752050
2.375500	1.751732
2.376000	1.753324
2.376500	1.753005
2.377000	1.751095
2.377500	1.752369
2.378000	1.752369
2.378500	1.752050
2.379000	1.752050
2.379500	1.752050
2.380000	1.752687
2.380500	1.752687
2.381000	1.753005
2.381500	1.751413
2.382000	1.752369
2.382500	1.752369
2.383000	1.751413
2.383500	1.752369
2.384000	1.752050
2.384500	1.752050
2.385000	1.752687
2.385500	1.751413
2.386000	1.751413
2.386500	1.751732
2.387000	1.751732
2.387500	1.752369
2.388000	1.752369
2.388500	1.751413
2.389000	1.752369
2.389500	1.752369
2.390000	1.752050
2.390500	1.752050
2.391000	1.751732
2.391500	1.750776
2.392000	1.751732
2.392500	1.751732
2.393000	1.750776
2.393500	1.751413
2.394000	1.751732
2.394500	1.751732
2.395000	1.752050
2.395500	1.750776
2.396000	1.751732
2.396500	1.751732
2.397000	1.751413
2.397500	1.750776
2.398000	1.751732
2.398500	1.751095
2.399000	1.751095
2.399500	1.751732
2.400000	1.750776
2.400500	1.751095
2.401000	1.751732
2.401500	1.751413
2.402000	1.750776
2.402500	1.751413
2.403000	1.751413
2.403500	1.750458
2.404000	1.751732
2.404500	1.750776
2.405000	1.751413
2.405500	1.752050
2.406000	1.750776
2.406500	1.750776
2.407000	1.751413
2.407500	1.751095
2.408000	1.751732
2.408500	1.751095
2.409000	1.749821
2.409500	1.751095
2.410000	1.751732
2.410500	1.750776
2.411000	1.751413
2.411500	1.750776
2.412000	1.750776
2.412500	1.751732
2.413000	1.750139
2.413500	1.750458
2.414000	1.750776
2.414500	1.751413
2.415000	1.750776
2.415500	1.752050
2.416000	1.751095
2.416500	1.750776
2.417000	1.751413
2.417500	1.751095
2.418000	1.750776
2.418500	1.751413
2.419000	1.749821
2.419500	1.751413
2.420000	1.751095
2.420500	1.750458
2.421000	1.751095
2.421500	1.752050
2.422000	1.751413
2.422500	1.750776
2.423000	1.751413
2.423500	1.751095
2.424000	1.751732
2.424500	1.751732
2.425000	1.750458
2.425500	1.750458
2.426000	1.752050
2.426500	1.751095
2.427000	1.751095
2.427500	1.750776
2.428000	1.750776
2.428500	1.751413
2.429000	1.750776
2.429500	1.751095
2.430000	1.751732
2.430500	1.752369
2.431000	1.751413
2.431500	1.752050
2.432000	1.751095
2.432500	1.751413
2.433000	1.752050
2.433500	1.751413
2.434000	1.750776
2.434500	1.751413
2.435000	1.751413
2.435500	1.751095
2.436000	1.751413
2.436500	1.751095
2.437000	1.750776
2.437500	1.752687
2.438000	1.751732
2.438500	1.751095
2.439000	1.752050
2.439500	1.750458
2.440000	1.751732
2.440500	1.752050
2.441000	1.750776
2.441500	1.751413
2.442000	1.751413
2.442500	1.750776
2.443000	1.751095
2.443500	1.750776
2.444000	1.750458
2.444500	1.751095
2.445000	1.751095
2.445500	1.751732
2.446000	1.750776
2.446500	1.752687
2.447000	1.751732
2.447500	1.752050
2.448000	1.750776
2.448500	1.751413
2.449000	1.752050
2.449500	1.752050
2.450000	1.750776
2.450500	1.751732
2.451000	1.751732
2.451500	1.752050
2.452000	1.752050
2.452500	1.750776
2.453000	1.751095
2.453500	1.752050
2.454000	1.752050
2.454500	1.750776
2.455000	1.751095
2.455500	1.750776
2.456000	1.752050
2.456500	1.752050
2.457000	1.751413
2.457500	1.751413
2.458000	1.753005
2.458500	1.751732
2.459000	1.751095
2.459500	1.751732
2.460000	1.751413
2.460500	1.751413
2.461000	1.751413
2.461500	1.750776
2.462000	1.751413
2.462500	1.751732
2.463000	1.751413
2.463500	1.751095
2.464000	1.752050
2.464500	1.751413
2.465000	1.752687
2.465500	1.751413
2.466000	1.751095
2.466500	1.751413
2.467000	1.752050
2.467500	1.751095
2.468000	1.751095
2.468500	1.751732
2.469000	1.750776
2.469500	1.752050
2.470000	1.752050
2.470500	1.751413
2.471000	1.751732
2.471500	1.752050
2.472000	1.751095
2.472500	1.752050
2.473000	1.751413
2.473500	1.751095
2.474000	1.752369
2.474500	1.751732
2.475000	1.751095
2.475500	1.752050
2.476000	1.752050
2.476500	1.751413
2.477000	1.751732
2.477500	1.750776
2.478000	1.751413
2.478500	1.752687
2.479000	1.751413
2.479500	1.751095
2.480000	1.751732
2.480500	1.751732
2.481000	1.752050
2.481500	1.751413
2.482000	1.750776
2.482500	1.751732
2.483000	1.751732
2.483500	1.751095
2.484000	1.750776
2.484500	1.751413
2.485000	1.751095
2.485500	1.751732
2.486000	1.751732
2.486500	1.751095
2.487000	1.752050
2.487500	1.752369
2.488000	1.750776
2.488500	1.751732
2.489000	1.751095
2.489500	1.751413
2.490000	1.751732
2.490500	1.751095
2.491000	1.750139
2.491500	1.751732
2.492000	1.752050
2.492500	1.751413
2.493000	1.751732
2.493500	1.752369
2.494000	1.751413
2.494500	1.750776
2.495000	1.751095
2.495500	1.751413
2.496000	1.751413
2.496500	1.751095
2.497000	1.750776
2.497500	1.751413
2.498000	1.751413
2.498500	1.751413
2.499000	1.751413
2.499500	1.751732
2.500000	1.750458
2.500500	1.751095
2.501000	1.750776
2.501500	1.751413
2.502000	1.751732
2.502500	1.750458
2.503000	1.750458
2.503500	1.751413
2.504000	1.750776
2.504500	1.750776
2.505000	1.750776
2.505500	1.751095
2.506000	1.751095
2.506500	1.751095
2.507000	1.750458
2.507500	1.750776
2.508000	1.751732
2.508500	1.751095
2.509000	1.751095
2.509500	1.750776
2.510000	1.750776
2.510500	1.752050
2.511000	1.751095
2.511500	1.751732
2.512000	1.750776
2.512500	1.751732
2.513000	1.750776
2.513500	1.751095
2.514000	1.750776
2.514500	1.750458
2.515000	1.751413
2.515500	1.751413
2.516000	1.750139
2.516500	1.751413
2.517000	1.751413
2.517500	1.750776
2.518000	1.750776
2.518500	1.750776
2.519000	1.751095
2.519500	1.752050
2.520000	1.750458
2.520500	1.750776
2.521000	1.750776
2.521500	1.751413
2.522000	1.750776
2.522500	1.751413
2.523000	1.750776
2.523500	1.751095
2.524000	1.752050
2.524500	1.751095
2.525000	1.750776
2.525500	1.751095
2.526000	1.750458
2.526500	1.750776
2.527000	1.752050
2.527500	1.750458
2.528000	1.751095
2.528500	1.752050
2.529000	1.751095
2.529500	1.751095
2.530000	1.751095
2.530500	1.751095
2.531000	1.751732
2.531500	1.751413
2.532000	1.751095
2.532500	1.751095
2.533000	1.752050
2.533500	1.752050
2.534000	1.751732
2.534500	1.751095
2.535000	1.750139
2.535500	1.752050
2.536000	1.751413
2.536500	1.750776
2.537000	1.750776
2.537500	1.751732
2.538000	1.751413
2.538500	1.751413
2.539000	1.750776
2.539500	1.751095
2.540000	1.751732
2.540500	1.752050
2.541000	1.750458
2.541500	1.752050
2.542000	1.751095
2.542500	1.751732
2.543000	1.752369
2.543500	1.751413
2.544000	1.752369
2.544500	1.752687
2.545000	1.751413
2.545500	1.751095
2.546000	1.752050
2.546500	1.751413
2.547000	1.752369
2.547500	1.751732
2.548000	1.751732
2.548500	1.751413
2.549000	1.752369
2.549500	1.751732
2.550000	1.752050
2.550500	1.751413
2.551000	1.750776
2.551500	1.752050
2.552000	1.752050
2.552500	1.751413
2.553000	1.752687
2.553500	1.752050
2.554000	1.751732
2.554500	1.752050
2.555000	1.752050
2.555500	1.751095
2.556000	1.752687
2.556500	1.752050
2.557000	1.752687
2.557500	1.752050
2.558000	1.752369
2.558500	1.752369
2.559000	1.752687
2.559500	1.751732
2.560000	1.752050
2.560500	1.753005
2.561000	1.751413
2.561500	1.751732
2.562000	1.751732
2.562500	1.752369
2.563000	1.752369
2.563500	1.752050
2.564000	1.752050
2.564500	1.752050
2.565000	1.752687
2.565500	1.752369
2.566000	1.751413
2.566500	1.751413
2.567000	1.752050
2.567500	1.752369
2.568000	1.751732
2.568500	1.751095
2.569000	1.752687
2.569500	1.753005
2.570000	1.751095
2.570500	1.752050
2.571000	1.752050
2.571500	1.751732
2.572000	1.752050
2.572500	1.751732
2.573000	1.751095
2.573500	1.751413
2.574000	1.751732
2.574500	1.751413
2.575000	1.752050
2.575500	1.751095
2.576000	1.752050
2.576500	1.752050
2.577000	1.751732
2.577500	1.751413
2.578000	1.751413
2.578500	1.751095
2.579000	1.751732
2.579500	1.752050
2.580000	1.751413
2.580500	1.751732
2.581000	1.752369
2.581500	1.751732
2.582000	1.751095
2.582500	1.751413
2.583000	1.750458
2.583500	1.751413
2.584000	1.751413
2.584500	1.750139
2.585000	1.751095
2.585500	1.751732
2.586000	1.751095
2.586500	1.751732
2.587000	1.751095
2.587500	1.750776
2.588000	1.752050
2.588500	1.752050
2.589000	1.750776
2.589500	1.751413
2.590000	1.752050
2.590500	1.751095
2.591000	1.752050
2.591500	1.750776
2.592000	1.751413
2.592500	1.752050
2.593000	1.750776
2.593500	1.750776
2.594000	1.752050
2.594500	1.751732
2.595000	1.751413
2.595500	1.751732
2.596000	1.751095
2.596500	1.750776
2.597000	1.751413
2.597500	1.750776
2.598000	1.750776
2.598500	1.751732
2.599000	1.750776
2.599500	1.751732
2.600000	1.751095
2.600500	1.751095
2.601000	1.751732
2.601500	1.751413
2.602000	1.750776
2.602500	1.752050
2.603000	1.751095
2.603500	1.750776
2.604000	1.752050
2.604500	1.751095
2.605000	1.750776
2.605500	1.751095
2.606000	1.751413
2.606500	1.751413
2.607000	1.751095
2.607500	1.751413
2.608000	1.750458
2.608500	1.752687
2.609000	1.751732
2.609500	1.751413
2.610000	1.751732
2.610500	1.751095
2.611000	1.751413
2.611500	1.751413
2.612000	1.750458
2.612500	1.751095
2.613000	1.752050
2.613500	1.751413
2.614000	1.751095
2.614500	1.751413
2.615000	1.751413
2.615500	1.751732
2.616000	1.751095
2.616500	1.750776
2.617000	1.751732
2.617500	1.752369
2.618000	1.751095
2.618500	1.752369
2.619000	1.751095
2.619500	1.751413
2.620000	1.753005
2.620500	1.751732
2.621000	1.750458
2.621500	1.751732
2.622000	1.751413
2.622500	1.751732
2.623000	1.751095
2.623500	1.751413
2.624000	1.751413
2.624500	1.752050
2.625000	1.750776
2.625500	1.750458
2.626000	1.752050
2.626500	1.751732
2.627000	1.752369
2.627500	1.752369
2.628000	1.751413
2.628500	1.752050
2.629000	1.751413
2.629500	1.751413
2.630000	1.751732
2.630500	1.751413
2.631000	1.750776
2.631500	1.752050
2.632000	1.752050
2.632500	1.750776
2.633000	1.752050
2.633500	1.752050
2.634000	1.751095
2.634500	1.751413
2.635000	1.751095
2.635500	1.750776
2.636000	1.752369
2.636500	1.751732
2.637000	1.751095
2.637500	1.751413
2.638000	1.751095
2.638500	1.751413
2.639000	1.751732
2.639500	1.751095
2.640000	1.751732
2.640500	1.752687
2.641000	1.751732
2.641500	1.750776
2.642000	1.751732
2.642500	1.751732
2.643000	1.752050
2.643500	1.751413
2.644000	1.750458
2.644500	1.751413
2.645000	1.752369
2.645500	1.751413
2.646000	1.750776
2.646500	1.751732
2.647000	1.751095
2.647500	1.752050
2.648000	1.752369
2.648500	1.750776
2.649000	1.752369
2.649500	1.752050
2.650000	1.751732
2.650500	1.751413
2.651000	1.752050
2.651500	1.751413
2.652000	1.751732
2.652500	1.752369
2.653000	1.750776
2.653500	1.752050
2.654000	1.751732
2.654500	1.752050
2.655000	1.752050
2.655500	1.752369
2.656000	1.752050
2.656500	1.751732
2.657000	1.751095
2.657500	1.752369
2.658000	1.751732
2.658500	1.751413
2.659000	1.752050
2.659500	1.752369
2.660000	1.751732
2.660500	1.752050
2.661000	1.752687
2.661500	1.751413
2.662000	1.751413
2.662500	1.752050
2.663000	1.751413
2.663500	1.752050
2.664000	1.752369
2.664500	1.751732
2.665000	1.752050
2.665500	1.752687
2.666000	1.751732
2.666500	1.751732
2.667000	1.751732
2.667500	1.752369
2.668000	1.752050
2.668500	1.752050
2.669000	1.751413
2.669500	1.752050
2.670000	1.752050
2.670500	1.751732
2.671000	1.751413
2.671500	1.751732
2.672000	1.751413
2.672500	1.752050
2.673000	1.751413
2.673500	1.751413
2.674000	1.752050
2.674500	1.752369
2.675000	1.751413
2.675500	1.751732
2.676000	1.751413
2.676500	1.751732
2.677000	1.752687
2.677500	1.751413
2.678000	1.750458
2.678500	1.752050
2.679000	1.751732
2.679500	1.751413
2.680000	1.752050
2.680500	1.752050
2.681000	1.751732
2.681500	1.753005
2.682000	1.752050
2.682500	1.751413
2.683000	1.752050
2.683500	1.751095
2.684000	1.751095
2.684500	1.752050
2.685000	1.751413
2.685500	1.751732
2.686000	1.752050
2.686500	1.751413
2.687000	1.752050
2.687500	1.752050
2.688000	1.751413
2.688500	1.751413
2.689000	1.751095
2.689500	1.750458
2.690000	1.750776
2.690500	1.751413
2.691000	1.750776
2.691500	1.752050
2.692000	1.751095
2.692500	1.750776
2.693000	1.752687
2.693500	1.751732
2.694000	1.750458
2.694500	1.751413
2.695000	1.751413
2.695500	1.751095
2.696000	1.751095
2.696500	1.750458
2.697000	1.751732
2.697500	1.752050
2.698000	1.750776
2.698500	1.750776
2.699000	1.751732
2.699500	1.750458
2.700000	1.751095
2.700500	1.751095
2.701000	1.750776
2.701500	1.751732
2.702000	1.752050
2.702500	1.751095
2.703000	1.750776
2.703500	1.751095
2.704000	1.751095
2.704500	1.750776
2.705000	1.751413
2.705500	1.750776
2.706000	1.751095
2.706500	1.751732
2.707000	1.749821
2.707500	1.750776
2.708000	1.752050
2.708500	1.749821
2.709000	1.751732
2.709500	1.751095
2.710000	1.750458
2.710500	1.750776
2.711000	1.751095
2.711500	1.750776
2.712000	1.751095
2.712500	1.751095
2.713000	1.750776
2.713500	1.751413
2.714000	1.751732
2.714500	1.750776
2.715000	1.751095
2.715500	1.750458
2.716000	1.751413
2.716500	1.751732
2.717000	1.750458
2.717500	1.750458
2.718000	1.752050
2.718500	1.750458
2.719000	1.750458
2.719500	1.751413
2.720000	1.750458
2.720500	1.751095
2.721000	1.751413
2.721500	1.749821
2.722000	1.751095
2.722500	1.751413
2.723000	1.751413
2.723500	1.750776
2.724000	1.750776
2.724500	1.751413
2.725000	1.752050
2.725500	1.752050
2.726000	1.750458
2.726500	1.751732
2.727000	1.751732
2.727500	1.750458
2.728000	1.751095
2.728500	1.751095
2.729000	1.750458
2.729500	1.751095
2.730000	1.750776
2.730500	1.749821
2.731000	1.750776
2.731500	1.751732
2.732000	1.751095
2.732500	1.751413
2.733000	1.751413
2.733500	1.750458
2.734000	1.751732
2.734500	1.751095
2.735000	1.750776
2.735500	1.751413
2.736000	1.750776
2.736500	1.750776
2.737000	1.751413
2.737500	1.750776
2.738000	1.750139
2.738500	1.751413
2.739000	1.751095
2.739500	1.751095
2.740000	1.751732
2.740500	1.750458
2.741000	1.751095
2.741500	1.751732
2.742000	1.750776
2.742500	1.751732
2.743000	1.751732
2.743500	1.750776
2.744000	1.752050
2.744500	1.751413
2.745000	1.751095
2.745500	1.751732
2.746000	1.752050
2.746500	1.750458
2.747000	1.750776
2.747500	1.751732
2.748000	1.751413
2.748500	1.750776
2.749000	1.751095
2.749500	1.751095
2.750000	1.752050
2.750500	1.751095
2.751000	1.750139
2.751500	1.751095
2.752000	1.751732
2.752500	1.751095
2.753000	1.751413
2.753500	1.750458
2.754000	1.751413
2.754500	1.750776
2.755000	1.751413
2.755500	1.750139
2.756000	1.750776
2.756500	1.751095
2.757000	1.751732
2.757500	1.750776
2.758000	1.750458
2.758500	1.751095
2.759000	1.752050
2.759500	1.750458
2.760000	1.750458
2.760500	1.752050
2.761000	1.750776
2.761500	1.751413
2.762000	1.751095
2.762500	1.750458
2.763000	1.750458
2.763500	1.751095
2.764000	1.750458
2.764500	1.751732
2.765000	1.751095
2.765500	1.749821
2.766000	1.750776
2.766500	1.751095
2.767000	1.750139
2.767500	1.750776
2.768000	1.750776
2.768500	1.749821
2.769000	1.751095
2.769500	1.750776
2.770000	1.750139
2.770500	1.751413
2.771000	1.751095
2.771500	1.750776
2.772000	1.750776
2.772500	1.750776
2.773000	1.750776
2.773500	1.751095
2.774000	1.749821
2.774500	1.750776
2.775000	1.751732
2.775500	1.751095
2.776000	1.749821
2.776500	1.749821
2.777000	1.749821
2.777500	1.751413
2.778000	1.750776
2.778500	1.749821
2.779000	1.750776
2.779500	1.752050
2.780000	1.750458
2.780500	1.749821
2.781000	1.751095
2.781500	1.750776
2.782000	1.752050
2.782500	1.750776
2.783000	1.749502
2.783500	1.750776
2.784000	1.751095
2.784500	1.750458
2.785000	1.750776
2.785500	1.750776
2.786000	1.749821
2.786500	1.750776
2.787000	1.751095
2.787500	1.749821
2.788000	1.752050
2.788500	1.751095
2.789000	1.750776
2.789500	1.751095
2.790000	1.751413
2.790500	1.751413
2.791000	1.751413
2.791500	1.750139
2.792000	1.750776
2.792500	1.752050
2.793000	1.750776
2.793500	1.750776
2.794000	1.751732
2.794500	1.750776
2.795000	1.750776
2.795500	1.751732
2.796000	1.750776
2.796500	1.751095
2.797000	1.751413
2.797500	1.750458
2.798000	1.750776
2.798500	1.751095
2.799000	1.750776
2.799500	1.751095
2.800000	1.750776
2.800500	1.751732
2.801000	1.751732
2.801500	1.750776
2.802000	1.750458
2.802500	1.751413
2.803000	1.750776
2.803500	1.749821
2.804000	1.750776
2.804500	1.751413
2.805000	1.750776
2.805500	1.750776
2.806000	1.751095
2.806500	1.750776
2.807000	1.752369
2.807500	1.750776
2.808000	1.750139
2.808500	1.751095
2.809000	1.751095
2.809500	1.751095
2.810000	1.750776
2.810500	1.750776
2.811000	1.751413
2.811500	1.752050
2.812000	1.751413
2.812500	1.751413
2.813000	1.751095
2.813500	1.750776
2.814000	1.751413
2.814500	1.751095
2.815000	1.750458
2.815500	1.750776
2.816000	1.752050
2.816500	1.750776
2.817000	1.751413
2.817500	1.750776
2.818000	1.750458
2.818500	1.751732
2.819000	1.751413
2.819500	1.750458
2.820000	1.751413
2.820500	1.751413
2.821000	1.751413
2.821500	1.751732
2.822000	1.751413
2.822500	1.750458
2.823000	1.751732
2.823500	1.751413
2.824000	1.750458
2.824500	1.751732
2.825000	1.751413
2.825500	1.751413
2.826000	1.752050
2.826500	1.750776
2.827000	1.751413
2.827500	1.752687
2.828000	1.751413
2.828500	1.750458
2.829000	1.751413
2.829500	1.750776
2.830000	1.751413
2.830500	1.751732
2.831000	1.750458
2.831500	1.751732
2.832000	1.752050
2.832500	1.751413
2.833000	1.750458
2.833500	1.751095
2.834000	1.751413
2.834500	1.752369
2.835000	1.751095
2.835500	1.750776
2.836000	1.752369
2.836500	1.752050
2.837000	1.751732
2.837500	1.751732
2.838000	1.751732
2.838500	1.751732
2.839000	1.751413
2.839500	1.751413
2.840000	1.750139
2.840500	1.752050
2.841000	1.751095
2.841500	1.751095
2.842000	1.751095
2.842500	1.751413
2.843000	1.751095
2.843500	1.751732
2.844000	1.751413
2.844500	1.750776
2.845000	1.751413
2.845500	1.751413
2.846000	1.751413
2.846500	1.752050
2.847000	1.750776
2.847500	1.751095
2.848000	1.751732
2.848500	1.751413
2.849000	1.751413
2.849500	1.750458
2.850000	1.751413
2.850500	1.751095
2.851000	1.751732
2.851500	1.750458
2.852000	1.751413
2.852500	1.752050
2.853000	1.751732
2.853500	1.750458
2.854000	1.751413
2.854500	1.751095
2.855000	1.751732
2.855500	1.751413
2.856000	1.751413
2.856500	1.751095
2.857000	1.752050
2.857500	1.751413
2.858000	1.750776
2.858500	1.750776
2.859000	1.750776
2.859500	1.752369
2.860000	1.751413
2.860500	1.750139
2.861000	1.751732
2.861500	1.751732
2.862000	1.751095
2.862500	1.751413
2.863000	1.750776
2.863500	1.751095
2.864000	1.752050
2.864500	1.750776
2.865000	1.750776
2.865500	1.751413
2.866000	1.751095
2.866500	1.751732
2.867000	1.751732
2.867500	1.751732
2.868000	1.751413
2.868500	1.751413
2.869000	1.751413
2.869500	1.751413
2.870000	1.751413
2.870500	1.750776
2.871000	1.751413
2.871500	1.751095
2.872000	1.750458
2.872500	1.751413
2.873000	1.752050
2.873500	1.751095
2.874000	1.751413
2.874500	1.751095
2.875000	1.750458
2.875500	1.751095
2.876000	1.750776
2.876500	1.750139
2.877000	1.750776
2.877500	1.751413
2.878000	1.750458
2.878500	1.751732
2.879000	1.750458
2.879500	1.750458
2.880000	1.751732
2.880500	1.751095
2.881000	1.750776
2.881500	1.752050
2.882000	1.751095
2.882500	1.751413
2.883000	1.751413
2.883500	1.750776
2.884000	1.749821
2.884500	1.751732
2.885000	1.750776
2.885500	1.749821
2.886000	1.751095
2.886500	1.749821
2.887000	1.750776
2.887500	1.750776
2.888000	1.749821
2.888500	1.750458
2.889000	1.751095
2.889500	1.751413
2.890000	1.751095
2.890500	1.750458
2.891000	1.749821
2.891500	1.751413
2.892000	1.750776
2.892500	1.749821
2.893000	1.751413
2.893500	1.750776
2.894000	1.750139
2.894500	1.750458
2.895000	1.751413
2.895500	1.750139
2.896000	1.750776
2.896500	1.750776
2.897000	1.750458
2.897500	1.752050
2.898000	1.749821
2.898500	1.750458
2.899000	1.751732
2.899500	1.750776
2.900000	1.750776
2.900500	1.752050
2.901000	1.749502
2.901500	1.751413
2.902000	1.750776
2.902500	1.750458
2.903000	1.751413
2.903500	1.751095
2.904000	1.751095
2.904500	1.750776
2.905000	1.751732
2.905500	1.750776
2.906000	1.751413
2.906500	1.751413
2.907000	1.750458
2.907500	1.751732
2.908000	1.752050
2.908500	1.750458
2.909000	1.751413
2.909500	1.751413
2.910000	1.751413
2.910500	1.750776
2.911000	1.750776
2.911500	1.751413
2.912000	1.751732
2.912500	1.750776
2.913000	1.749821
2.913500	1.750458
2.914000	1.752050
2.914500	1.751095
2.915000	1.751413
2.915500	1.751413
2.916000	1.751095
2.916500	1.751732
2.917000	1.751413
2.917500	1.750776
2.918000	1.750776
2.918500	1.752050
2.919000	1.750776
2.919500	1.751732
2.920000	1.751095
2.920500	1.751732
2.921000	1.751732
2.921500	1.750458
2.922000	1.750776
2.922500	1.752050
2.923000	1.751413
2.923500	1.750458
2.924000	1.751413
2.924500	1.750776
2.925000	1.751413
2.925500	1.751413
2.926000	1.751413
2.926500	1.751413
2.927000	1.752050
2.927500	1.750776
2.928000	1.751413
2.928500	1.751413
2.929000	1.750776
2.929500	1.750776
2.930000	1.751413
2.930500	1.751413
2.931000	1.751095
2.931500	1.750776
2.932000	1.751413
2.932500	1.751095
2.933000	1.751413
2.933500	1.750458
2.934000	1.750776
2.934500	1.751095
2.935000	1.751095
2.935500	1.750776
2.936000	1.750776
2.936500	1.750458
2.937000	1.751732
2.937500	1.751095
2.938000	1.751095
2.938500	1.751413
2.939000	1.750776
2.939500	1.752050
2.940000	1.750776
2.940500	1.750776
2.941000	1.751413
2.941500	1.751732
2.942000	1.750776
2.942500	1.750458
2.943000	1.750776
2.943500	1.750776
2.944000	1.751413
2.944500	1.751095
2.945000	1.750776
2.945500	1.751095
2.946000	1.751413
2.946500	1.750458
2.947000	1.750139
2.947500	1.751413
2.948000	1.750776
2.948500	1.751732
2.949000	1.750458
2.949500	1.750458
2.950000	1.751413
2.950500	1.750776
2.951000	1.751095
2.951500	1.751413
2.952000	1.751095
2.952500	1.750776
2.953000	1.751095
2.953500	1.750139
2.954000	1.750776
2.954500	1.751732
2.955000	1.750139
2.955500	1.751413
2.956000	1.751413
2.956500	1.750776
2.957000	1.751095
2.957500	1.752050
2.958000	1.751413
2.958500	1.751413
2.959000	1.751413
2.959500	1.750776
2.960000	1.751732
2.960500	1.751413
2.961000	1.750139
2.961500	1.750776
2.962000	1.752050
2.962500	1.750458
2.963000	1.749821
2.963500	1.750776
2.964000	1.750458
2.964500	1.752050
2.965000	1.751413
2.965500	1.750776
2.966000	1.751413
2.966500	1.751413
2.967000	1.751095
2.967500	1.751732
2.968000	1.750458
2.968500	1.751095
2.969000	1.752050
2.969500	1.750776
2.970000	1.750139
2.970500	1.752369
2.971000	1.751413
2.971500	1.751732
2.972000	1.751413
2.972500	1.750139
2.973000	1.751413
2.973500	1.751413
2.974000	1.751095
2.974500	1.751095
2.975000	1.750776
2.975500	1.750458
2.976000	1.751413
2.976500	1.751095
2.977000	1.750458
2.977500	1.751413
2.978000	1.751413
2.978500	1.750776
2.979000	1.751413
2.979500	1.750458
2.980000	1.750776
2.980500	1.752050
2.981000	1.750776
2.981500	1.750776
2.982000	1.751095
2.982500	1.749821
2.983000	1.751732
2.983500	1.752050
2.984000	1.750458
2.984500	1.750139
2.985000	1.751413
2.985500	1.751095
2.986000	1.750776
2.986500	1.750458
2.987000	1.750458
2.987500	1.751095
2.988000	1.751413
2.988500	1.749821
2.989000	1.750776
2.989500	1.751413
2.990000	1.750458
2.990500	1.750458
2.991000	1.750776
2.991500	1.750139
2.992000	1.750458
2.992500	1.751413
2.993000	1.750139
2.993500	1.750776
2.994000	1.751095
2.994500	1.750139
2.995000	1.750458
2.995500	1.750776
2.996000	1.750458
2.996500	1.750776
2.997000	1.750776
2.997500	1.750139
2.998000	1.751413
2.998500	1.751095
2.999000	1.750458
2.999500	1.750776
3.000000	1.750458
3.000500	1.749821
3.001000	1.751095
3.001500	1.749502
3.002000	1.750139
3.002500	1.751732
3.003000	1.750776
3.003500	1.750776
3.004000	1.751095
3.004500	1.749821
3.005000	1.750458
3.005500	1.752050
3.006000	1.750458
3.006500	1.750776
3.007000	1.750776
3.007500	1.749821
3.008000	1.750776
3.008500	1.751095
3.009000	1.750458
3.009500	1.750776
3.010000	1.751413
3.010500	1.749821
3.011000	1.751095
3.011500	1.750776
3.012000	1.749502
3.012500	1.751413
3.013000	1.751413
3.013500	1.749821
3.014000	1.750458
3.014500	1.751413
3.015000	1.751413
3.015500	1.750776
3.016000	1.750139
3.016500	1.750139
3.017000	1.752050
3.017500	1.751095
3.018000	1.750139
3.018500	1.750776
3.019000	1.751413
3.019500	1.751413
3.020000	1.750776
3.020500	1.749821
3.021000	1.750776
3.021500	1.751413
3.022000	1.750139
3.022500	1.750139
3.023000	1.750776
3.023500	1.750458
3.024000	1.750776
3.024500	1.750776
3.025000	1.750139
3.025500	1.751095
3.026000	1.751413
3.026500	1.751095
3.027000	1.750776
3.027500	1.750458
3.028000	1.750458
3.028500	1.751095
3.029000	1.750776
3.029500	1.749821
3.030000	1.750776
3.030500	1.750776
3.031000	1.750776
3.031500	1.750776
3.032000	1.752050
3.032500	1.751095
3.033000	1.751413
3.033500	1.750776
3.034000	1.749821
3.034500	1.751095
3.035000	1.749821
3.035500	1.750776
3.036000	1.751413
3.036500	1.750139
3.037000	1.751095
3.037500	1.751413
3.038000	1.750776
3.038500	1.750458
3.039000	1.750776
3.039500	1.749821
3.040000	1.751095
3.040500	1.750458
3.041000	1.750139
3.041500	1.750139
3.042000	1.751413
3.042500	1.749821
3.043000	1.750776
3.043500	1.749502
3.044000	1.749821
3.044500	1.751095
3.045000	1.750776
3.045500	1.750139
3.046000	1.750776
3.046500	1.751095
3.047000	1.750776
3.047500	1.750458
3.048000	1.750139
3.048500	1.750776
3.049000	1.751413
3.049500	1.750139
3.050000	1.749821
3.050500	1.751095
3.051000	1.750776
3.051500	1.749821
3.052000	1.750776
3.052500	1.749821
3.053000	1.750458
3.053500	1.750776
3.054000	1.750139
3.054500	1.750458
3.055000	1.750458
3.055500	1.749821
3.056000	1.750458
3.056500	1.750139
3.057000	1.749821
3.057500	1.750776
3.058000	1.750458
3.058500	1.749502
3.059000	1.750776
3.059500	1.751095
3.060000	1.750458
3.060500	1.750458
3.061000	1.751095
3.061500	1.749502
3.062000	1.749821
3.062500	1.749502
3.063000	1.749821
3.063500	1.750139
3.064000	1.750458
3.064500	1.749821
3.065000	1.750139
3.065500	1.750776
3.066000	1.749502
3.066500	1.749502
3.067000	1.750139
3.067500	1.750458
3.068000	1.750776
3.068500	1.749821
3.069000	1.749821
3.069500	1.751095
3.070000	1.750139
3.070500	1.749502
3.071000	1.750139
3.071500	1.750139
3.072000	1.750458
3.072500	1.750458
3.073000	1.749821
3.073500	1.750776
3.074000	1.751732
3.074500	1.750458
3.075000	1.749821
3.075500	1.750458
3.076000	1.750139
3.076500	1.751413
3.077000	1.751095
3.077500	1.750139
3.078000	1.751095
3.078500	1.751413
3.079000	1.750458
3.079500	1.750139
3.080000	1.750776
3.080500	1.750776
3.081000	1.751732
3.081500	1.750139
3.082000	1.749502
3.082500	1.750458
3.083000	1.750776
3.083500	1.750139
3.084000	1.751413
3.084500	1.750776
3.085000	1.750458
3.085500	1.751095
3.086000	1.750776
3.086500	1.750139
3.087000	1.751413
3.087500	1.750776
3.088000	1.751732
3.088500	1.751732
3.089000	1.750776
3.089500	1.750458
3.090000	1.751095
3.090500	1.751095
3.091000	1.750776
3.091500	1.751095
3.092000	1.750776
3.092500	1.751413
3.093000	1.752050
3.093500	1.750776
3.094000	1.750776
3.094500	1.752050
3.095000	1.751413
3.095500	1.751413
3.096000	1.750776
3.096500	1.750458
3.097000	1.751732
3.097500	1.751095
3.098000	1.750458
3.098500	1.750776
3.099000	1.751732
3.099500	1.751095
3.100000	1.751095
3.100500	1.750139
3.101000	1.750776
3.101500	1.751732
3.102000	1.750776
3.102500	1.749821
3.103000	1.751413
3.103500	1.751413
3.104000	1.750776
3.104500	1.750776
3.105000	1.751095
3.105500	1.751095
3.106000	1.751413
3.106500	1.750776
3.107000	1.750139
3.107500	1.751732
3.108000	1.750776
3.108500	1.750458
3.109000	1.751732
3.109500	1.751095
3.110000	1.751413
3.110500	1.751413
3.111000	1.751413
3.111500	1.751095
3.112000	1.751413
3.112500	1.749821
3.113000	1.751095
3.113500	1.750776
3.114000	1.750776
3.114500	1.751732
3.115000	1.751095
3.115500	1.750458
3.116000	1.750776
3.116500	1.750776
3.117000	1.750139
3.117500	1.751413
3.118000	1.751095
3.118500	1.749821
3.119000	1.750458
3.119500	1.750776
3.120000	1.750776
3.120500	1.751732
3.121000	1.750776
3.121500	1.750458
3.122000	1.751413
3.122500	1.750776
3.123000	1.749502
3.123500	1.751095
3.124000	1.750458
3.124500	1.751095
3.125000	1.750458
3.125500	1.750139
3.126000	1.750458
3.126500	1.751413
3.127000	1.750776
3.127500	1.750139
3.128000	1.750776
3.128500	1.749821
3.129000	1.750139
3.129500	1.750776
3.130000	1.749502
3.130500	1.751095
3.131000	1.751413
3.131500	1.750776
3.132000	1.749821
3.132500	1.750458
3.133000	1.750139
3.133500	1.751095
3.134000	1.750458
3.134500	1.749821
3.135000	1.750458
3.135500	1.750458
3.136000	1.749502
3.136500	1.750776
3.137000	1.750458
3.137500	1.750458
3.138000	1.752050
3.138500	1.750458
3.139000	1.750139
3.139500	1.751413
3.140000	1.749821
3.140500	1.749821
3.141000	1.750776
3.141500	1.750458
3.142000	1.750139
3.142500	1.750776
3.143000	1.750458
3.143500	1.749821
3.144000	1.750139
3.144500	1.749184
3.145000	1.750458
3.145500	1.751095
3.146000	1.749821
3.146500	1.750458
3.147000	1.750776
3.147500	1.751413
3.148000	1.750776
3.148500	1.750458
3.149000	1.749821
3.149500	1.751095
3.150000	1.750458
3.150500	1.749821
3.151000	1.750458
3.151500	1.751095
3.152000	1.750458
3.152500	1.749821
3.153000	1.749821
3.153500	1.750139
3.154000	1.751413
3.154500	1.750458
3.155000	1.750139
3.155500	1.750776
3.156000	1.750776
3.156500	1.750776
3.157000	1.750776
3.157500	1.750139
3.158000	1.750139
3.158500	1.750458
3.159000	1.750139
3.159500	1.750139
3.160000	1.750458
3.160500	1.750458
3.161000	1.750776
3.161500	1.750458
3.162000	1.749502
3.162500	1.750458
3.163000	1.750776
3.163500	1.750139
3.164000	1.749821
3.164500	1.750776
3.165000	1.749821
3.165500	1.750776
3.166000	1.749821
3.166500	1.750776
3.167000	1.750139
3.167500	1.750776
3.168000	1.750139
3.168500	1.750458
3.169000	1.750458
3.169500	1.749502
3.170000	1.749821
3.170500	1.750458
3.171000	1.749821
3.171500	1.750776
3.172000	1.750458
3.172500	1.749821
3.173000	1.750776
3.173500	1.750139
3.174000	1.749821
3.174500	1.750776
3.175000	1.750776
3.175500	1.749821
3.176000	1.750458
3.176500	1.751732
3.177000	1.750776
3.177500	1.751413
3.178000	1.750458
3.178500	1.750776
3.179000	1.750776
3.179500	1.750776
3.180000	1.749502
3.180500	1.750776
3.181000	1.750139
3.181500	1.751095
3.182000	1.751413
3.182500	1.750776
3.183000	1.750776
3.183500	1.751413
3.184000	1.750776
3.184500	1.750776
3.185000	1.750458
3.185500	1.751413
3.186000	1.750776
3.186500	1.750139
3.187000	1.750776
3.187500	1.751413
3.188000	1.752050
3.188500	1.750458
3.189000	1.751095
3.189500	1.750776
3.190000	1.750776
3.190500	1.750776
3.191000	1.751095
3.191500	1.750458
3.192000	1.752050
3.192500	1.751095
3.193000	1.750776
3.193500	1.752050
3.194000	1.752050
3.194500	1.750776
3.195000	1.751732
3.195500	1.751413
3.196000	1.750776
3.196500	1.751413
3.197000	1.751095
3.197500	1.751095
3.198000	1.752050
3.198500	1.751413
3.199000	1.751413
3.199500	1.751732
3.200000	1.751413
3.200500	1.750776
3.201000	1.751732
3.201500	1.750458
3.202000	1.752050
3.202500	1.752050
3.203000	1.750776
3.203500	1.751413
3.204000	1.752050
3.204500	1.751413
3.205000	1.751413
3.205500	1.751413
3.206000	1.751413
3.206500	1.751413
3.207000	1.752687
3.207500	1.751413
3.208000	1.751732
3.208500	1.752050
3.209000	1.751732
3.209500	1.752050
3.210000	1.751413
3.210500	1.751413
3.211000	1.752050
3.211500	1.751732
3.212000	1.751413
3.212500	1.751095
3.213000	1.751732
3.213500	1.751732
3.214000	1.751732
3.214500	1.751095
3.215000	1.751095
3.215500	1.752369
3.216000	1.751732
3.216500	1.750776
3.217000	1.752050
3.217500	1.751732
3.218000	1.751413
3.218500	1.752050
3.219000	1.751095
3.219500	1.751413
3.220000	1.752050
3.220500	1.751413
3.221000	1.750458
3.221500	1.752050
3.222000	1.751413
3.222500	1.750776
3.223000	1.752050
3.223500	1.751413
3.224000	1.751413
3.224500	1.752050
3.225000	1.752050
3.225500	1.751413
3.226000	1.751732
3.226500	1.751095
3.227000	1.752050
3.227500	1.752050
3.228000	1.751095
3.228500	1.752050
3.229000	1.751732
3.229500	1.751413
3.230000	1.751413
3.230500	1.750458
3.231000	1.750458
3.231500	1.751413
3.232000	1.751413
3.232500	1.749821
3.233000	1.751732
3.233500	1.752050
3.234000	1.751413
3.234500	1.751732
3.235000	1.750776
3.235500	1.750776
3.236000	1.751732
3.236500	1.750776
3.237000	1.749502
3.237500	1.751095
3.238000	1.751095
3.238500	1.751095
3.239000	1.751732
3.239500	1.750458
3.240000	1.750458
3.240500	1.751413
3.241000	1.750139
3.241500	1.750776
3.242000	1.751413
3.242500	1.751095
3.243000	1.751413
3.243500	1.751732
3.244000	1.750776
3.244500	1.751732
3.245000	1.752050
3.245500	1.750139
3.246000	1.750776
3.246500	1.751095
3.247000	1.750776
3.247500	1.751095
3.248000	1.751095
3.248500	1.750776
3.249000	1.750458
3.249500	1.751413
3.250000	1.750458
3.250500	1.751095
3.251000	1.751095
3.251500	1.749502
3.252000	1.750776
3.252500	1.751095
3.253000	1.750776
3.253500	1.751095
3.254000	1.751413
3.254500	1.750776
3.255000	1.751095
3.255500	1.751095
3.256000	1.750776
3.256500	1.751413
3.257000	1.751413
3.257500	1.750139
3.258000	1.751095
3.258500	1.751413
3.259000	1.750776
3.259500	1.751732
3.260000	1.751095
3.260500	1.750139
3.261000	1.751413
3.261500	1.751095
3.262000	1.750458
3.262500	1.750776
3.263000	1.750776
3.263500	1.751413
3.264000	1.750776
3.264500	1.749821
3.265000	1.750776
3.265500	1.751732
3.266000	1.751095
3.266500	1.750139
3.267000	1.750776
3.267500	1.750776
3.268000	1.751413
3.268500	1.751413
3.269000	1.750776
3.269500	1.751413
3.270000	1.751413
3.270500	1.750776
3.271000	1.750776
3.271500	1.751413
3.272000	1.751413
3.272500	1.751413
3.273000	1.750776
3.273500	1.751095
3.274000	1.751413
3.274500	1.750776
3.275000	1.750776
3.275500	1.751095
3.276000	1.750776
3.276500	1.750776
3.277000	1.751413
3.277500	1.751095
3.278000	1.750776
3.278500	1.751732
3.279000	1.750776
3.279500	1.751413
3.280000	1.751732
3.280500	1.750776
3.281000	1.750776
3.281500	1.751732
3.282000	1.751413
3.282500	1.749821
3.283000	1.750776
3.283500	1.750458
3.284000	1.750776
3.284500	1.751732
3.285000	1.750776
3.285500	1.751095
3.286000	1.752050
3.286500	1.750458
3.287000	1.750776
3.287500	1.750458
3.288000	1.750776
3.288500	1.751413
3.289000	1.751095
3.289500	1.750139
3.290000	1.751413
3.290500	1.751413
3.291000	1.750458
3.291500	1.750776
3.292000	1.750776
3.292500	1.750776
3.293000	1.751413
3.293500	1.750458
3.294000	1.749184
3.294500	1.750776
3.295000	1.750139
3.295500	1.750776
3.296000	1.750776
3.296500	1.750139
3.297000	1.750776
3.297500	1.751095
3.298000	1.750458
3.298500	1.750776
3.299000	1.750776
3.299500	1.749821
3.300000	1.750458
3.300500	1.751095
3.301000	1.749821
3.301500	1.750458
3.302000	1.751095
3.302500	1.750776
3.303000	1.750458
3.303500	1.751095
3.304000	1.750139
3.304500	1.750776
3.305000	1.751095
3.305500	1.750458
3.306000	1.751413
3.306500	1.750776
3.307000	1.750139
3.307500	1.751413
3.308000	1.750458
3.308500	1.749821
3.309000	1.750458
3.309500	1.751413
3.310000	1.750139
3.310500	1.750458
3.311000	1.751413
3.311500	1.750458
3.312000	1.751413
3.312500	1.750776
3.313000	1.749821
3.313500	1.751095
3.314000	1.750776
3.314500	1.749502
3.315000	1.750776
3.315500	1.750776
3.316000	1.750776
3.316500	1.750776
3.317000	1.750776
3.317500	1.750139
3.318000	1.751413
3.318500	1.750139
3.319000	1.750139
3.319500	1.751095
3.320000	1.750776
3.320500	1.751095
3.321000	1.750776
3.321500	1.749502
3.322000	1.749821
3.322500	1.751413
3.323000	1.749821
3.323500	1.750458
3.324000	1.751413
3.324500	1.750139
3.325000	1.750776
3.325500	1.751413
3.326000	1.750139
3.326500	1.751095
3.327000	1.751095
3.327500	1.750776
3.328000	1.750458
3.328500	1.750139
3.329000	1.750776
3.329500	1.750458
3.330000	1.751413
3.330500	1.750139
3.331000	1.750776
3.331500	1.750776
3.332000	1.750458
3.332500	1.750458
3.333000	1.750776
3.333500	1.750776
3.334000	1.751732
3.334500	1.750458
3.335000	1.750458
3.335500	1.750458
3.336000	1.750458
3.336500	1.750776
3.337000	1.750458
3.337500	1.750458
3.338000	1.750139
3.338500	1.751732
3.339000	1.750139
3.339500	1.750458
3.340000	1.750139
3.340500	1.750776
3.341000	1.751095
3.341500	1.750458
3.342000	1.750139
3.342500	1.749821
3.343000	1.752050
3.343500	1.750139
3.344000	1.749821
3.344500	1.750776
3.345000	1.750139
3.345500	1.750776
3.346000	1.750139
3.346500	1.749821
3.347000	1.750139
3.347500	1.751413
3.348000	1.750139
3.348500	1.749502
3.349000	1.750139
3.349500	1.749821
3.350000	1.750458
3.350500	1.750139
3.351000	1.749821
3.351500	1.750139
3.352000	1.750776
3.352500	1.750458
3.353000	1.749821
3.353500	1.749821
3.354000	1.749502
3.354500	1.750458
3.355000	1.750139
3.355500	1.749502
3.356000	1.749821
3.356500	1.751095
3.357000	1.749821
3.357500	1.750776
3.358000	1.750458
3.358500	1.750139
3.359000	1.751413
3.359500	1.749184
3.360000	1.749184
3.360500	1.749821
3.361000	1.750139
3.361500	1.750139
3.362000	1.750458
3.362500	1.750458
3.363000	1.749821
3.363500	1.750458
3.364000	1.749821
3.364500	1.749821
3.365000	1.750776
3.365500	1.749502
3.366000	1.750458
3.366500	1.751413
3.367000	1.749821
3.367500	1.750776
3.368000	1.751095
3.368500	1.750776
3.369000	1.749821
3.369500	1.750458
3.370000	1.750458
3.370500	1.750458
3.371000	1.750458
3.371500	1.750139
3.372000	1.749502
3.372500	1.751413
3.373000	1.751095
3.373500	1.750776
3.374000	1.751095
3.374500	1.750139
3.375000	1.751095
3.375500	1.751095
3.376000	1.749184
3.376500	1.750776
3.377000	1.750776
3.377500	1.750458
3.378000	1.750776
3.378500	1.749821
3.379000	1.750458
3.379500	1.751095
3.380000	1.749821
3.380500	1.750458
3.381000	1.750776
3.381500	1.750458
3.382000	1.749502
3.382500	1.750776
3.383000	1.750458
3.383500	1.750776
3.384000	1.750458
3.384500	1.750458
3.385000	1.750139
3.385500	1.750776
3.386000	1.749821
3.386500	1.750776
3.387000	1.751095
3.387500	1.749821
3.388000	1.750458
3.388500	1.751095
3.389000	1.750458
3.389500	1.750776
3.390000	1.750776
3.390500	1.749821
3.391000	1.750776
3.391500	1.750458
3.392000	1.749502
3.392500	1.750458
3.393000	1.751095
3.393500	1.749821
3.394000	1.750458
3.394500	1.749502
3.395000	1.750458
3.395500	1.751413
3.396000	1.750458
3.396500	1.750458
3.397000	1.749821
3.397500	1.750776
3.398000	1.750458
3.398500	1.751413
3.399000	1.749821
3.399500	1.750458
3.400000	1.750776
3.400500	1.750458
3.401000	1.749502
3.401500	1.750458
3.402000	1.751095
3.402500	1.750458
3.403000	1.750458
3.403500	1.750139
3.404000	1.750776
3.404500	1.751095
3.405000	1.749821
3.405500	1.748866
3.406000	1.750776
3.406500	1.750139
3.407000	1.751732
3.407500	1.750458
3.408000	1.750139
3.408500	1.750458
3.409000	1.751413
3.409500	1.750139
3.410000	1.750139
3.410500	1.750776
3.411000	1.750458
3.411500	1.750776
3.412000	1.750776
3.412500	1.749821
3.413000	1.750776
3.413500	1.751413
3.414000	1.749821
3.414500	1.750776
3.415000	1.751095
3.415500	1.750776
3.416000	1.751095
3.416500	1.751413
3.417000	1.750458
3.417500	1.751095
3.418000	1.750776
3.418500	1.750776
3.419000	1.751413
3.419500	1.750458
3.420000	1.750458
3.420500	1.751095
3.421000	1.750458
3.421500	1.750776
3.422000	1.750458
3.422500	1.750776
3.423000	1.751095
3.423500	1.751732
3.424000	1.749821
3.424500	1.750458
3.425000	1.752050
3.425500	1.751413
3.426000	1.750458
3.426500	1.750776
3.427000	1.750776
3.427500	1.751413
3.428000	1.751095
3.428500	1.750776
3.429000	1.750776
3.429500	1.750776
3.430000	1.750458
3.430500	1.750458
3.431000	1.750458
3.431500	1.751095
3.432000	1.751095
3.432500	1.750776
3.433000	1.749821
3.433500	1.750776
3.434000	1.751095
3.434500	1.750139
3.435000	1.751095
3.435500	1.750776
3.436000	1.751095
3.436500	1.751413
3.437000	1.751095
3.437500	1.750776
3.438000	1.751095
3.438500	1.750776
3.439000	1.750776
3.439500	1.751095
3.440000	1.750776
3.440500	1.750776
3.441000	1.751413
3.441500	1.750776
3.442000	1.751095
3.442500	1.751413
3.443000	1.751413
3.443500	1.751095
3.444000	1.751413
3.444500	1.751095
3.445000	1.750458
3.445500	1.751095
3.446000	1.751095
3.446500	1.751413
3.447000	1.750458
3.447500	1.749502
3.448000	1.750776
3.448500	1.750776
3.449000	1.749502
3.449500	1.750776
3.450000	1.750776
3.450500	1.750458
3.451000	1.751095
3.451500	1.749821
3.452000	1.750458
3.452500	1.751732
3.453000	1.750776
3.453500	1.749821
3.454000	1.750776
3.454500	1.750776
3.455000	1.751413
3.455500	1.751732
3.456000	1.749821
3.456500	1.751095
3.457000	1.751732
3.457500	1.750776
3.458000	1.749502
3.458500	1.750776
3.459000	1.750458
3.459500	1.751413
3.460000	1.750139
3.460500	1.750139
3.461000	1.750776
3.461500	1.751732
3.462000	1.749821
3.462500	1.750458
3.463000	1.750776
3.463500	1.750139
3.464000	1.750776
3.464500	1.751095
3.465000	1.750776
3.465500	1.751413
3.466000	1.751095
3.466500	1.750776
3.467000	1.750776
3.467500	1.750458
3.468000	1.749502
3.468500	1.749821
3.469000	1.750776
3.469500	1.749502
3.470000	1.749821
3.470500	1.750776
3.471000	1.750458
3.471500	1.750776
3.472000	1.750776
3.472500	1.750458
3.473000	1.751413
3.473500	1.750776
3.474000	1.750458
3.474500	1.750776
3.475000	1.750458
3.475500	1.751095
3.476000	1.750776
3.476500	1.750458
3.477000	1.750458
3.477500	1.751095
3.478000	1.750458
3.478500	1.750139
3.479000	1.750458
3.479500	1.750139
3.480000	1.750776
3.480500	1.751413
3.481000	1.749184
3.481500	1.751095
3.482000	1.751413
3.482500	1.749502
3.483000	1.750458
3.483500	1.750139
3.484000	1.750458
3.484500	1.751095
3.485000	1.751413
3.485500	1.749821
3.486000	1.750776
3.486500	1.751095
3.487000	1.750458
3.487500	1.750776
3.488000	1.750458
3.488500	1.750458
3.489000	1.751413
3.489500	1.750458
3.490000	1.749502
3.490500	1.750139
3.491000	1.751095
3.491500	1.750139
3.492000	1.750776
3.492500	1.749821
3.493000	1.750458
3.493500	1.751413
3.494000	1.750458
3.494500	1.750139
3.495000	1.750776
3.495500	1.750139
3.496000	1.750458
3.496500	1.750776
3.497000	1.749821
3.497500	1.750458
3.498000	1.750776
3.498500	1.749821
3.499000	1.751095
3.499500	1.751095
3.500000	1.750458
3.500500	1.751413
3.501000	1.751413
3.501500	1.750139
3.502000	1.750776
3.502500	1.751095
3.503000	1.750776
3.503500	1.751413
3.504000	1.750776
3.504500	1.749821
3.505000	1.750776
3.505500	1.750776
3.506000	1.750458
3.506500	1.751095
3.507000	1.750776
3.507500	1.750776
3.508000	1.751095
3.508500	1.749502
3.509000	1.750139
3.509500	1.750776
3.510000	1.751095
3.510500	1.749821
3.511000	1.750776
3.511500	1.750776
3.512000	1.750776
3.512500	1.750776
3.513000	1.749821
3.513500	1.749821
3.514000	1.750458
3.514500	1.749502
3.515000	1.749821
3.515500	1.750776
3.516000	1.750139
3.516500	1.750776
3.517000	1.750139
3.517500	1.749821
3.518000	1.750776
3.518500	1.751732
3.519000	1.750139
3.519500	1.750776
3.520000	1.750776
3.520500	1.750458
3.521000	1.750776
3.521500	1.750776
3.522000	1.749821
3.522500	1.750776
3.523000	1.750776
3.523500	1.750139
3.524000	1.751095
3.524500	1.750139
3.525000	1.749821
3.525500	1.750458
3.526000	1.750139
3.526500	1.749502
3.527000	1.750139
3.527500	1.749821
3.528000	1.750458
3.528500	1.750458
3.529000	1.750458
3.529500	1.749502
3.530000	1.751413
3.530500	1.751095
3.531000	1.749821
3.531500	1.750139
3.532000	1.749502
3.532500	1.750458
3.533000	1.751095
3.533500	1.749502
3.534000	1.750776
3.534500	1.750776
3.535000	1.749821
3.535500	1.749821
3.536000	1.750458
3.536500	1.750139
3.537000	1.750776
3.537500	1.750458
3.538000	1.749821
3.538500	1.750139
3.539000	1.750776
3.539500	1.750139
3.540000	1.751095
3.540500	1.749821
3.541000	1.749184
3.541500	1.750776
3.542000	1.750458
3.542500	1.750139
3.543000	1.750458
3.543500	1.750458
3.544000	1.750139
3.544500	1.750458
3.545000	1.750458
3.545500	1.750458
3.546000	1.750776
3.546500	1.750139
3.547000	1.750139
3.547500	1.751413
3.548000	1.749184
3.548500	1.750458
3.549000	1.751095
3.549500	1.749821
3.550000	1.750139
3.550500	1.750776
3.551000	1.750139
3.551500	1.751095
3.552000	1.750458
3.552500	1.750139
3.553000	1.751095
3.553500	1.750776
3.554000	1.749821
3.554500	1.750139
3.555000	1.751413
3.555500	1.750458
3.556000	1.751413
3.556500	1.750139
3.557000	1.750776
3.557500	1.752050
3.558000	1.750776
3.558500	1.750458
3.559000	1.751095
3.559500	1.750776
3.560000	1.751095
3.560500	1.751732
3.561000	1.750458
3.561500	1.751095
3.562000	1.751732
3.562500	1.750776
3.563000	1.750458
3.563500	1.750776
3.564000	1.750458
3.564500	1.751413
3.565000	1.751095
3.565500	1.750776
3.566000	1.750776
3.566500	1.752050
3.567000	1.750776
3.567500	1.750458
3.568000	1.751413
3.568500	1.752050
3.569000	1.751732
3.569500	1.751095
3.570000	1.750139
3.570500	1.751732
3.571000	1.751413
3.571500	1.750458
3.572000	1.751095
3.572500	1.750458
3.573000	1.750776
3.573500	1.751413
3.574000	1.751732
3.574500	1.750776
3.575000	1.751732
3.575500	1.751095
3.576000	1.751413
3.576500	1.751732
3.577000	1.750776
3.577500	1.750776
3.578000	1.751413
3.578500	1.750776
3.579000	1.751095
3.579500	1.751095
3.580000	1.750139
3.580500	1.750776
3.581000	1.751413
3.581500	1.750458
3.582000	1.750458
3.582500	1.751095
3.583000	1.751413
3.583500	1.750776
3.584000	1.750458
3.584500	1.750139
3.585000	1.751732
3.585500	1.751413
3.586000	1.749821
3.586500	1.750776
3.587000	1.751413
3.587500	1.750458
3.588000	1.750776
3.588500	1.750458
3.589000	1.749821
3.589500	1.751413
3.590000	1.751413
3.590500	1.750139
3.591000	1.750776
3.591500	1.751095
3.592000	1.750776
3.592500	1.751095
3.593000	1.750776
3.593500	1.751095
3.594000	1.751732
3.594500	1.750776
3.595000	1.750458
3.595500	1.751413
3.596000	1.751413
3.596500	1.751413
3.597000	1.751413
3.597500	1.750458
3.598000	1.751095
3.598500	1.752050
3.599000	1.751732
3.599500	1.751413
3.600000	1.751413
3.600500	1.751413
3.601000	1.751095
3.601500	1.751413
3.602000	1.750776
3.602500	1.751413
3.603000	1.751413
3.603500	1.750139
3.604000	1.751413
3.604500	1.750776
3.605000	1.750458
3.605500	1.751413
3.606000	1.751095
3.606500	1.750458
3.607000	1.750776
3.607500	1.750776
3.608000	1.751095
3.608500	1.751732
3.609000	1.750776
3.609500	1.750458
3.610000	1.751413
3.610500	1.750776
3.611000	1.750776
3.611500	1.751095
3.612000	1.750776
3.612500	1.751732
3.613000	1.751095
3.613500	1.750776
3.614000	1.751095
3.614500	1.752050
3.615000	1.751413
3.615500	1.751732
3.616000	1.751413
3.616500	1.751413
3.617000	1.751413
3.617500	1.750776
3.618000	1.749821
3.618500	1.751413
3.619000	1.752050
3.619500	1.752050
3.620000	1.751095
3.620500	1.751413
3.621000	1.751732
3.621500	1.752687
3.622000	1.751095
3.622500	1.750776
3.623000	1.751095
3.623500	1.750776
3.624000	1.751095
3.624500	1.751732
3.625000	1.750776
3.625500	1.751413
3.626000	1.752050
3.626500	1.751413
3.627000	1.751732
3.627500	1.751732
3.628000	1.751095
3.628500	1.750776
3.629000	1.751095
3.629500	1.751095
3.630000	1.751095
3.630500	1.751413
3.631000	1.751095
3.631500	1.751413
3.632000	1.750776
3.632500	1.750776
3.633000	1.751413
3.633500	1.750776
3.634000	1.750139
3.634500	1.750776
3.635000	1.750776
3.635500	1.751095
3.636000	1.752050
3.636500	1.750776
3.637000	1.750776
3.637500	1.752050
3.638000	1.750139
3.638500	1.750458
3.639000	1.751095
3.639500	1.751413
3.640000	1.751413
3.640500	1.751413
3.641000	1.751413
3.641500	1.751413
3.642000	1.752369
3.642500	1.750458
3.643000	1.750458
3.643500	1.751413
3.644000	1.749821
3.644500	1.751413
3.645000	1.751732
3.645500	1.750458
3.646000	1.750776
3.646500	1.751413
3.647000	1.750458
3.647500	1.750776
3.648000	1.750458
3.648500	1.750776
3.649000	1.751413
3.649500	1.751413
3.650000	1.750458
3.650500	1.751413
3.651000	1.751413
3.651500	1.750776
3.652000	1.751095
3.652500	1.750776
3.653000	1.750458
3.653500	1.750776
3.654000	1.751095
3.654500	1.749821
3.655000	1.750776
3.655500	1.751095
3.656000	1.750776
3.656500	1.751095
3.657000	1.751095
3.657500	1.750458
3.658000	1.751413
3.658500	1.751413
3.659000	1.750776
3.659500	1.751732
3.660000	1.751413
3.660500	1.751095
3.661000	1.752050
3.661500	1.750458
3.662000	1.750776
3.662500	1.750776
3.663000	1.750458
3.663500	1.750776
3.664000	1.750776
3.664500	1.750139
3.665000	1.750458
3.665500	1.751095
3.666000	1.749821
3.666500	1.751095
3.667000	1.750776
3.667500	1.751095
3.668000	1.751095
3.668500	1.750139
3.669000	1.750776
3.669500	1.751413
3.670000	1.750776
3.670500	1.749821
3.671000	1.751095
3.671500	1.751732
3.672000	1.751095
3.672500	1.752050
3.673000	1.750458
3.673500	1.751095
3.674000	1.751413
3.674500	1.750458
3.675000	1.750458
3.675500	1.750776
3.676000	1.751095
3.676500	1.750458
3.677000	1.751732
3.677500	1.751095
3.678000	1.751095
3.678500	1.751413
3.679000	1.750458
3.679500	1.750458
3.680000	1.751732
3.680500	1.750458
3.681000	1.750458
3.681500	1.751413
3.682000	1.750776
3.682500	1.751095
3.683000	1.751732
3.683500	1.751095
3.684000	1.750776
3.684500	1.751732
3.685000	1.750776
3.685500	1.751095
3.686000	1.751732
3.686500	1.751095
3.687000	1.751413
3.687500	1.752050
3.688000	1.751413
3.688500	1.751413
3.689000	1.751413
3.689500	1.750458
3.690000	1.751732
3.690500	1.751732
3.691000	1.750458
3.691500	1.751095
3.692000	1.751732
3.692500	1.751095
3.693000	1.751413
3.693500	1.750776
3.694000	1.750776
3.694500	1.751413
3.695000	1.751413
3.695500	1.750458
3.696000	1.751413
3.696500	1.750776
3.697000	1.750776
3.697500	1.750776
3.698000	1.750776
3.698500	1.751095
3.699000	1.752369
3.699500	1.750458
3.700000	1.750776
3.700500	1.751413
3.701000	1.751095
3.701500	1.751095
3.702000	1.750776
3.702500	1.750139
3.703000	1.751095
3.703500	1.751095
3.704000	1.750776
3.704500	1.750139
3.705000	1.750458
3.705500	1.749821
3.706000	1.750139
3.706500	1.751095
3.707000	1.750139
3.707500	1.750776
3.708000	1.751413
3.708500	1.750458
3.709000	1.751095
3.709500	1.750139
3.710000	1.749821
3.710500	1.751095
3.711000	1.750139
3.711500	1.750458
3.712000	1.751095
3.712500	1.750776
3.713000	1.750776
3.713500	1.751095
3.714000	1.750776
3.714500	1.749821
3.715000	1.751095
3.715500	1.750776
3.716000	1.749821
3.716500	1.751095
3.717000	1.750139
3.717500	1.750776
3.718000	1.752050
3.718500	1.750776
3.719000	1.751095
3.719500	1.751413
3.720000	1.750776
3.720500	1.749821
3.721000	1.750776
3.721500	1.749821
3.722000	1.751095
3.722500	1.750458
3.723000	1.750458
3.723500	1.750776
3.724000	1.751732
3.724500	1.751413
3.725000	1.750458
3.725500	1.751095
3.726000	1.751413
3.726500	1.750458
3.727000	1.751732
3.727500	1.750776
3.728000	1.750776
3.728500	1.751413
3.729000	1.751095
3.729500	1.751413
3.730000	1.751095
3.730500	1.751095
3.731000	1.751413
3.731500	1.750776
3.732000	1.750139
3.732500	1.751732
3.733000	1.752050
3.733500	1.751095
3.734000	1.751413
3.734500	1.751413
3.735000	1.750776
3.735500	1.752050
3.736000	1.751413
3.736500	1.751413
3.737000	1.751732
3.737500	1.751732
3.738000	1.750776
3.738500	1.751732
3.739000	1.750776
3.739500	1.751095
3.740000	1.751732
3.740500	1.751413
3.741000	1.750776
3.741500	1.751732
3.742000	1.750776
3.742500	1.751732
3.743000	1.752369
3.743500	1.751732
3.744000	1.751413
3.744500	1.752369
3.745000	1.751413
3.745500	1.751413
3.746000	1.751413
3.746500	1.750776
3.747000	1.751732
3.747500	1.752050
3.748000	1.750776
3.748500	1.752050
3.749000	1.751413
3.749500	1.751413
3.750000	1.751413
3.750500	1.750776
3.751000	1.750776
3.751500	1.752050
3.752000	1.751413
3.752500	1.750139
3.753000	1.751732
3.753500	1.752050
3.754000	1.751732
3.754500	1.752050
3.755000	1.751095
3.755500	1.751413
3.756000	1.752369
3.756500	1.750776
3.757000	1.750458
3.757500	1.751732
3.758000	1.751413
3.758500	1.751413
3.759000	1.751732
3.759500	1.751413
3.760000	1.752050
3.760500	1.752050
3.761000	1.750776
3.761500	1.750776
3.762000	1.751732
3.762500	1.751095
3.763000	1.751095
3.763500	1.751732
3.764000	1.750776
3.764500	1.752050
3.765000	1.752050
3.765500	1.751413
3.766000	1.752050
3.766500	1.751413
3.767000	1.750776
3.767500	1.751413
3.768000	1.750776
3.768500	1.750776
3.769000	1.751413
3.769500	1.752050
3.770000	1.751413
3.770500	1.752050
3.771000	1.751095
3.771500	1.750776
3.772000	1.752369
3.772500	1.751732
3.773000	1.751413
3.773500	1.751732
3.774000	1.751413
3.774500	1.752050
3.775000	1.752050
3.775500	1.750776
3.776000	1.750776
3.776500	1.752369
3.777000	1.751732
3.777500	1.751413
3.778000	1.751732
3.778500	1.751413
3.779000	1.752369
3.779500	1.751732
3.780000	1.750776
3.780500	1.751732
3.781000	1.752687
3.781500	1.751095
3.782000	1.751095
3.782500	1.751413
3.783000	1.750776
3.783500	1.752050
3.784000	1.751095
3.784500	1.750458
3.785000	1.752050
3.785500	1.752050
3.786000	1.751095
3.786500	1.750776
3.787000	1.751413
3.787500	1.751413
3.788000	1.751413
3.788500	1.751413
3.789000	1.751413
3.789500	1.752050
3.790000	1.752050
3.790500	1.752369
3.791000	1.752369
3.791500	1.751413
3.792000	1.751413
3.792500	1.751413
3.793000	1.751413
3.793500	1.751732
3.794000	1.751095
3.794500	1.749821
3.795000	1.751413
3.795500	1.751413
3.796000	1.751095
3.796500	1.750776
3.797000	1.752687
3.797500	1.750776
3.798000	1.752050
3.798500	1.751095
3.799000	1.751095
3.799500	1.751095
3.800000	1.750776
3.800500	1.750776
3.801000	1.751095
3.801500	1.751095
3.802000	1.752050
3.802500	1.751732
3.803000	1.751095
3.803500	1.751095
3.804000	1.752050
3.804500	1.750776
3.805000	1.750776
3.805500	1.751413
3.806000	1.752050
3.806500	1.751095
3.807000	1.751413
3.807500	1.751413
3.808000	1.751095
3.808500	1.752050
3.809000	1.750458
3.809500	1.750776
3.810000	1.751095
3.810500	1.751732
3.811000	1.751732
3.811500	1.751413
3.812000	1.749821
3.812500	1.751413
3.813000	1.751413
3.813500	1.750458
3.814000	1.751095
3.814500	1.750776
3.815000	1.750776
3.815500	1.750458
3.816000	1.751413
3.816500	1.751095
3.817000	1.751413
3.817500	1.751732
3.818000	1.750458
3.818500	1.751095
3.819000	1.751095
3.819500	1.750139
3.820000	1.751095
3.820500	1.750776
3.821000	1.750458
3.821500	1.751095
3.822000	1.750776
3.822500	1.751095
3.823000	1.751413
3.823500	1.750776
3.824000	1.750458
3.824500	1.751095
3.825000	1.750776
3.825500	1.750458
3.826000	1.751095
3.826500	1.750139
3.827000	1.751413
3.827500	1.751413
3.828000	1.749502
3.828500	1.750776
3.829000	1.751413
3.829500	1.750139
3.830000	1.750139
3.830500	1.750776
3.831000	1.750139
3.831500	1.751413
3.832000	1.751732
3.832500	1.749821
3.833000	1.751413
3.833500	1.751413
3.834000	1.750776
3.834500	1.751413
3.835000	1.750776
3.835500	1.750458
3.836000	1.751732
3.836500	1.750776
3.837000	1.750776
3.837500	1.751095
3.838000	1.751413
3.838500	1.751095
3.839000	1.750776
3.839500	1.751095
3.840000	1.750458
3.840500	1.751095
3.841000	1.750139
3.841500	1.750458
3.842000	1.751413
3.842500	1.751413
3.843000	1.750776
3.843500	1.750776
3.844000	1.750776
3.844500	1.751413
3.845000	1.752050
3.845500	1.751095
3.846000	1.751095
3.846500	1.751732
3.847000	1.750776
3.847500	1.751732
3.848000	1.752050
3.848500	1.750776
3.849000	1.750776
3.849500	1.752050
3.850000	1.751413
3.850500	1.751413
3.851000	1.751732
3.851500	1.750776
3.852000	1.751413
3.852500	1.751732
3.853000	1.750458
3.853500	1.750458
3.854000	1.751732
3.854500	1.751413
3.855000	1.751095
3.855500	1.751413
3.856000	1.752050
3.856500	1.752050
3.857000	1.752050
3.857500	1.750458
3.858000	1.751413
3.858500	1.751732
3.859000	1.751095
3.859500	1.752050
3.860000	1.751095
3.860500	1.750776
3.861000	1.753005
3.861500	1.751413
3.862000	1.751413
3.862500	1.751732
3.863000	1.751413
3.863500	1.751413
3.864000	1.752050
3.864500	1.751095
3.865000	1.752050
3.865500	1.753005
3.866000	1.751413
3.866500	1.751095
3.867000	1.752050
3.867500	1.751413
3.868000	1.752369
3.868500	1.752687
3.869000	1.751732
3.869500	1.752369
3.870000	1.752050
3.870500	1.751732
3.871000	1.752050
3.871500	1.751732
3.872000	1.751413
3.872500	1.752050
3.873000	1.752369
3.873500	1.751413
3.874000	1.752687
3.874500	1.751413
3.875000	1.752369
3.875500	1.752050
3.876000	1.751413
3.876500	1.751413
3.877000	1.752369
3.877500	1.751732
3.878000	1.751732
3.878500	1.752050
3.879000	1.751732
3.879500	1.751413
3.880000	1.752369
3.880500	1.751413
3.881000	1.752050
3.881500	1.752050
3.882000	1.752050
3.882500	1.751413
3.883000	1.751413
3.883500	1.751732
3.884000	1.751732
3.884500	1.752050
3.885000	1.751413
3.885500	1.752050
3.886000	1.753005
3.886500	1.751732
3.887000	1.751413
3.887500	1.752050
3.888000	1.751095
3.888500	1.752050
3.889000	1.751732
3.889500	1.751413
3.890000	1.751413
3.890500	1.751732
3.891000	1.752050
3.891500	1.751095
3.892000	1.750776
3.892500	1.751413
3.893000	1.751095
3.893500	1.751095
3.894000	1.750776
3.894500	1.751413
3.895000	1.751095
3.895500	1.751413
3.896000	1.752050
3.896500	1.750776
3.897000	1.750776
3.897500	1.751413
3.898000	1.751095
3.898500	1.750776
3.899000	1.751413
3.899500	1.751413
3.900000	1.751732
3.900500	1.751732
3.901000	1.750776
3.901500	1.751732
3.902000	1.752050
3.902500	1.751413
3.903000	1.751413
3.903500	1.751095
3.904000	1.751413
3.904500	1.752369
3.905000	1.751413
3.905500	1.750458
3.906000	1.751732
3.906500	1.751732
3.907000	1.751732
3.907500	1.751413
3.908000	1.750776
3.908500	1.750776
3.909000	1.752050
3.909500	1.751413
3.910000	1.749502
3.910500	1.751095
3.911000	1.751413
3.911500	1.751413
3.912000	1.751413
3.912500	1.750776
3.913000	1.751095
3.913500	1.752369
3.914000	1.751413
3.914500	1.751732
3.915000	1.752050
3.915500	1.752050
3.916000	1.752369
3.916500	1.751095
3.917000	1.751413
3.917500	1.752050
3.918000	1.752050
3.918500	1.751095
3.919000	1.751095
3.919500	1.751413
3.920000	1.752050
3.920500	1.751732
3.921000	1.751732
3.921500	1.750458
3.922000	1.751413
3.922500	1.752050
3.923000	1.751095
3.923500	1.751732
3.924000	1.752050
3.924500	1.750776
3.925000	1.751732
3.925500	1.751413
3.926000	1.751413
3.926500	1.751732
3.927000	1.752050
3.927500	1.751413
3.928000	1.752050
3.928500	1.752050
3.929000	1.751095
3.929500	1.752369
3.930000	1.752050
3.930500	1.750776
3.931000	1.751413
3.931500	1.750776
3.932000	1.751732
3.932500	1.752369
3.933000	1.750458
3.933500	1.751413
3.934000	1.752050
3.934500	1.751732
3.935000	1.750776
3.935500	1.751413
3.936000	1.750776
3.936500	1.751732
3.937000	1.751413
3.937500	1.751413
3.938000	1.751413
3.938500	1.753005
3.939000	1.751413
3.939500	1.751095
3.940000	1.751413
3.940500	1.751732
3.941000	1.751413
3.941500	1.750776
3.942000	1.751413
3.942500	1.752050
3.943000	1.752050
3.943500	1.752050
3.944000	1.751732
3.944500	1.751732
3.945000	1.751413
3.945500	1.753005
3.946000	1.750776
3.946500	1.750776
3.947000	1.752050
3.947500	1.751732
3.948000	1.751413
3.948500	1.752050
3.949000	1.751413
3.949500	1.751732
3.950000	1.751732
3.950500	1.751732
3.951000	1.752050
3.951500	1.751413
3.952000	1.751095
3.952500	1.752050
3.953000	1.752369
3.953500	1.750776
3.954000	1.751732
3.954500	1.752687
3.955000	1.752050
3.955500	1.752050
3.956000	1.752050
3.956500	1.752050
3.957000	1.752050
3.957500	1.752369
3.958000	1.750776
3.958500	1.752050
3.959000	1.751732
3.959500	1.752050
3.960000	1.752369
3.960500	1.750776
3.961000	1.751413
3.961500	1.753642
3.962000	1.751732
3.962500	1.751095
3.963000	1.752050
3.963500	1.752050
3.964000	1.753005
3.964500	1.752369
3.965000	1.751413
3.965500	1.751732
3.966000	1.752050
3.966500	1.752050
3.967000	1.752050
3.967500	1.752050
3.968000	1.751732
3.968500	1.752050
3.969000	1.753005
3.969500	1.752050
3.970000	1.752050
3.970500	1.752050
3.971000	1.751095
3.971500	1.752050
3.972000	1.752050
3.972500	1.752050
3.973000	1.752050
3.973500	1.752369
3.974000	1.752050
3.974500	1.752687
3.975000	1.752050
3.975500	1.751413
3.976000	1.752687
3.976500	1.752050
3.977000	1.752050
3.977500	1.752687
3.978000	1.752687
3.978500	1.752050
3.979000	1.751732
3.979500	1.752050
3.980000	1.751732
3.980500	1.752050
3.981000	1.752687
3.981500	1.752050
3.982000	1.752687
3.982500	1.752050
3.983000	1.751413
3.983500	1.752050
3.984000	1.752050
3.984500	1.752050
3.985000	1.752369
3.985500	1.751732
3.986000	1.751732
3.986500	1.752050
3.987000	1.752687
3.987500	1.751732
3.988000	1.751732
3.988500	1.751732
3.989000	1.752050
3.989500	1.752050
3.990000	1.751732
3.990500	1.751732
3.991000	1.752687
3.991500	1.751413
3.992000	1.751095
3.992500	1.751413
3.993000	1.752050
3.993500	1.751413
3.994000	1.751732
3.994500	1.750776
3.995000	1.752369
3.995500	1.751732
3.996000	1.751095
3.996500	1.752050
3.997000	1.751413
3.997500	1.751732
3.998000	1.752369
3.998500	1.751095
3.999000	1.750458
3.999500	1.751413
4.000000	1.751732
4.000500	1.750776
4.001000	1.750776
4.001500	1.751095
4.002000	1.751095
4.002500	1.752050
4.003000	1.751095
4.003500	1.751413
4.004000	1.751413
4.004500	1.750776
4.005000	1.752050
4.005500	1.751732
4.006000	1.751413
4.006500	1.751413
4.007000	1.752050
4.007500	1.751413
4.008000	1.750776
4.008500	1.751413
4.009000	1.750458
4.009500	1.751732
4.010000	1.751413
4.010500	1.750458
4.011000	1.752050
4.011500	1.751413
4.012000	1.751095
4.012500	1.751732
4.013000	1.751413
4.013500	1.750776
4.014000	1.751413
4.014500	1.751095
4.015000	1.750458
4.015500	1.751095
4.016000	1.751413
4.016500	1.751732
4.017000	1.751413
4.017500	1.750776
4.018000	1.751095
4.018500	1.751732
4.019000	1.751413
4.019500	1.750139
4.020000	1.751413
4.020500	1.750776
4.021000	1.751095
4.021500	1.751413
4.022000	1.750776
4.022500	1.751413
4.023000	1.751732
4.023500	1.751413
4.024000	1.751413
4.024500	1.751095
4.025000	1.750776
4.025500	1.750776
4.026000	1.751413
4.026500	1.750776
4.027000	1.751095
4.027500	1.751413
4.028000	1.750776
4.028500	1.751732
4.029000	1.751732
4.029500	1.750458
4.030000	1.751095
4.030500	1.751095
4.031000	1.750458
4.031500	1.751413
4.032000	1.751732
4.032500	1.751095
4.033000	1.752050
4.033500	1.750776
4.034000	1.750458
4.034500	1.752369
4.035000	1.752050
4.035500	1.751095
4.036000	1.751732
4.036500	1.751732
4.037000	1.751413
4.037500	1.751095
4.038000	1.751413
4.038500	1.751413
4.039000	1.752369
4.039500	1.751095
4.040000	1.751095
4.040500	1.751413
4.041000	1.751732
4.041500	1.752050
4.042000	1.752050
4.042500	1.750776
4.043000	1.751732
4.043500	1.753005
4.044000	1.751095
4.044500	1.751732
4.045000	1.751413
4.045500	1.751413
4.046000	1.753005
4.046500	1.751413
4.047000	1.750139
4.047500	1.752050
4.048000	1.752050
4.048500	1.751732
4.049000	1.751413
4.049500	1.751732
4.050000	1.751095
4.050500	1.751732
4.051000	1.751413
4.051500	1.750776
4.052000	1.751413
4.052500	1.752050
4.053000	1.752687
4.053500	1.752369
4.054000	1.751413
4.054500	1.751732
4.055000	1.752369
4.055500	1.752050
4.056000	1.751413
4.056500	1.752369
4.057000	1.750776
4.057500	1.751413
4.058000	1.752369
4.058500	1.751413
4.059000	1.751413
4.059500	1.752050
4.060000	1.751413
4.060500	1.751732
4.061000	1.751732
4.061500	1.751095
4.062000	1.751732
4.062500	1.752050
4.063000	1.751095
4.063500	1.752050
4.064000	1.752050
4.064500	1.751732
4.065000	1.751413
4.065500	1.751732
4.066000	1.750458
4.066500	1.751413
4.067000	1.751413
4.067500	1.750776
4.068000	1.752050
4.068500	1.752050
4.069000	1.751413
4.069500	1.751413
4.070000	1.751732
4.070500	1.751095
4.071000	1.753005
4.071500	1.751413
4.072000	1.750776
4.072500	1.751732
4.073000	1.751732
4.073500	1.751413
4.074000	1.752369
4.074500	1.751095
4.075000	1.752050
4.075500	1.753324
4.076000	1.751413
4.076500	1.752050
4.077000	1.752687
4.077500	1.751732
4.078000	1.751732
4.078500	1.751413
4.079000	1.751732
4.079500	1.751732
4.080000	1.752050
4.080500	1.751413
4.081000	1.751732
4.081500	1.751732
4.082000	1.751732
4.082500	1.751732
4.083000	1.752050
4.083500	1.752050
4.084000	1.751732
4.084500	1.752050
4.085000	1.752050
4.085500	1.752050
4.086000	1.751413
4.086500	1.751732
4.087000	1.752050
4.087500	1.752687
4.088000	1.751413
4.088500	1.752050
4.089000	1.752050
4.089500	1.751095
4.090000	1.752369
4.090500	1.751413
4.091000	1.751095
4.091500	1.752369
4.092000	1.752050
4.092500	1.750776
4.093000	1.751413
4.093500	1.751732
4.094000	1.751732
4.094500	1.751732
4.095000	1.752050
4.095500	1.752050
4.096000	1.752687
4.096500	1.752050
4.097000	1.751732
4.097500	1.752687
4.098000	1.751413
4.098500	1.751732
4.099000	1.752050
4.099500	1.751095
4.100000	1.752050
4.100500	1.752369
4.101000	1.750776
4.101500	1.751095
4.102000	1.751413
4.102500	1.751732
4.103000	1.752050
4.103500	1.751413
4.104000	1.750139
4.104500	1.752050
4.105000	1.752369
4.105500	1.750776
4.106000	1.752050
4.106500	1.751413
4.107000	1.750458
4.107500	1.752369
4.108000	1.751413
4.108500	1.751095
4.109000	1.751413
4.109500	1.750776
4.110000	1.751095
4.110500	1.751413
4.111000	1.750458
4.111500	1.751413
4.112000	1.752050
4.112500	1.751095
4.113000	1.750776
4.113500	1.751732
4.114000	1.751413
4.114500	1.751095
4.115000	1.751095
4.115500	1.750776
4.116000	1.750776
4.116500	1.751413
4.117000	1.750458
4.117500	1.750776
4.118000	1.751095
4.118500	1.750139
4.119000	1.750776
4.119500	1.750458
4.120000	1.749821
4.120500	1.750776
4.121000	1.750776
4.121500	1.750458
4.122000	1.750458
4.122500	1.750139
4.123000	1.750139
4.123500	1.750776
4.124000	1.750458
4.124500	1.749502
4.125000	1.750776
4.125500	1.750458
4.126000	1.750458
4.126500	1.750458
4.127000	1.750458
4.127500	1.749821
4.128000	1.750776
4.128500	1.750776
4.129000	1.749821
4.129500	1.750776
4.130000	1.750776
4.130500	1.750458
4.131000	1.750139
4.131500	1.750776
4.132000	1.750458
4.132500	1.751732
4.133000	1.750139
4.133500	1.750458
4.134000	1.750776
4.134500	1.750776
4.135000	1.750776
4.135500	1.750776
4.136000	1.749821
4.136500	1.750139
4.137000	1.751095
4.137500	1.750776
4.138000	1.750139
4.138500	1.750776
4.139000	1.750139
4.139500	1.750776
4.140000	1.750458
4.140500	1.750458
4.141000	1.750458
4.141500	1.750776
4.142000	1.750139
4.142500	1.751095
4.143000	1.751095
4.143500	1.750139
4.144000	1.751413
4.144500	1.750776
4.145000	1.750458
4.145500	1.750776
4.146000	1.750776
4.146500	1.751413
4.147000	1.751095
4.147500	1.750776
4.148000	1.750776
4.148500	1.751732
4.149000	1.750458
4.149500	1.750458
4.150000	1.751413
4.150500	1.750776
4.151000	1.750776
4.151500	1.751413
4.152000	1.750458
4.152500	1.751413
4.153000	1.752369
4.153500	1.751413
4.154000	1.750458
4.154500	1.751095
4.155000	1.751732
4.155500	1.751413
4.156000	1.751413
4.156500	1.751095
4.157000	1.751095
4.157500	1.752050
4.158000	1.750776
4.158500	1.750776
4.159000	1.751732
4.159500	1.750458
4.160000	1.751095
4.160500	1.750776
4.161000	1.750458
4.161500	1.752050
4.162000	1.751732
4.162500	1.750776
4.163000	1.751095
4.163500	1.751413
4.164000	1.750776
4.164500	1.752050
4.165000	1.751413
4.165500	1.750458
4.166000	1.750776
4.166500	1.751413
4.167000	1.751413
4.167500	1.752050
4.168000	1.750776
4.168500	1.751095
4.169000	1.752369
4.169500	1.751413
4.170000	1.751095
4.170500	1.751095
4.171000	1.750776
4.171500	1.752050
4.172000	1.752050
4.172500	1.750776
4.173000	1.751413
4.173500	1.751732
4.174000	1.751732
4.174500	1.751732
4.175000	1.751413
4.175500	1.751413
4.176000	1.751413
4.176500	1.751413
4.177000	1.750458
4.177500	1.751413
4.178000	1.751732
4.178500	1.751095
4.179000	1.751413
4.179500	1.750458
4.180000	1.751732
4.180500	1.751413
4.181000	1.751413
4.181500	1.751413
4.182000	1.751413
4.182500	1.750776
4.183000	1.751413
4.183500	1.752050
4.184000	1.751095
4.184500	1.751095
4.185000	1.752050
4.185500	1.751413
4.186000	1.750776
4.186500	1.750776
4.187000	1.751095
4.187500	1.751413
4.188000	1.752050
4.188500	1.751095
4.189000	1.751095
4.189500	1.751413
4.190000	1.751095
4.190500	1.751732
4.191000	1.751095
4.191500	1.750776
4.192000	1.751413
4.192500	1.751095
4.193000	1.750776
4.193500	1.751095
4.194000	1.751732
4.194500	1.751413
4.195000	1.751095
4.195500	1.750776
4.196000	1.750776
4.196500	1.751732
4.197000	1.751095
4.197500	1.750776
4.198000	1.751413
4.198500	1.750776
4.199000	1.751095
4.199500	1.751413
4.200000	1.750139
4.200500	1.752050
4.201000	1.751732
4.201500	1.750776
4.202000	1.751095
4.202500	1.750776
4.203000	1.750776
4.203500	1.751732
4.204000	1.751732
4.204500	1.750776
4.205000	1.750776
4.205500	1.751732
4.206000	1.750776
4.206500	1.751095
4.207000	1.750776
4.207500	1.751095
4.208000	1.751413
4.208500	1.750776
4.209000	1.750139
4.209500	1.751095
4.210000	1.751095
4.210500	1.750776
4.211000	1.751095
4.211500	1.750776
4.212000	1.751095
4.212500	1.751732
4.213000	1.751732
4.213500	1.751732
4.214000	1.751095
4.214500	1.750776
4.215000	1.750776
4.215500	1.751413
4.216000	1.749821
4.216500	1.751095
4.217000	1.751732
4.217500	1.750776
4.218000	1.750458
4.218500	1.750776
4.219000	1.750776
4.219500	1.751095
4.220000	1.751413
4.220500	1.750776
4.221000	1.751095
4.221500	1.751413
4.222000	1.751413
4.222500	1.751413
4.223000	1.750776
4.223500	1.749821
4.224000	1.751413
4.224500	1.751095
4.225000	1.750139
4.225500	1.751413
4.226000	1.751095
4.226500	1.751732
4.227000	1.751095
4.227500	1.750139
4.228000	1.750776
4.228500	1.752050
4.229000	1.751413
4.229500	1.749821
4.230000	1.751732
4.230500	1.750458
4.231000	1.750776
4.231500	1.751095
4.232000	1.750458
4.232500	1.751095
4.233000	1.752687
4.233500	1.750458
4.234000	1.750776
4.234500	1.751413
4.235000	1.750776
4.235500	1.751732
4.236000	1.751732
4.236500	1.750139
4.237000	1.751413
4.237500	1.751413
4.238000	1.750458
4.238500	1.751413
4.239000	1.750458
4.239500	1.751413
4.240000	1.751732
4.240500	1.751413
4.241000	1.750776
4.241500	1.751732
4.242000	1.751095
4.242500	1.750776
4.243000	1.751732
4.243500	1.750458
4.244000	1.751095
4.244500	1.752050
4.245000	1.751095
4.245500	1.750776
4.246000	1.750776
4.246500	1.750776
4.247000	1.751095
4.247500	1.751413
4.248000	1.751413
4.248500	1.751095
4.249000	1.751413
4.249500	1.750139
4.250000	1.751732
4.250500	1.750458
4.251000	1.750776
4.251500	1.751732
4.252000	1.751413
4.252500	1.750776
4.253000	1.750776
4.253500	1.751413
4.254000	1.751732
4.254500	1.752050
4.255000	1.749821
4.255500	1.750776
4.256000	1.752050
4.256500	1.751413
4.257000	1.749502
4.257500	1.751413
4.258000	1.750776
4.258500	1.751095
4.259000	1.751413
4.259500	1.750776
4.260000	1.751095
4.260500	1.752050
4.261000	1.750776
4.261500	1.750776
4.262000	1.750776
4.262500	1.750776
4.263000	1.751095
4.263500	1.751413
4.264000	1.750776
4.264500	1.751413
4.265000	1.752369
4.265500	1.750776
4.266000	1.751413
4.266500	1.751413
4.267000	1.751413
4.267500	1.752050
4.268000	1.751732
4.268500	1.750458
4.269000	1.750776
4.269500	1.751413
4.270000	1.751095
4.270500	1.751095
4.271000	1.750776
4.271500	1.750458
4.272000	1.752050
4.272500	1.751413
4.273000	1.751732
4.273500	1.751413
4.274000	1.751095
4.274500	1.752050
4.275000	1.752050
4.275500	1.750776
4.276000	1.751095
4.276500	1.751732
4.277000	1.751095
4.277500	1.750776
4.278000	1.751732
4.278500	1.751413
4.279000	1.752050
4.279500	1.751732
4.280000	1.750776
4.280500	1.751732
4.281000	1.752687
4.281500	1.751413
4.282000	1.751732
4.282500	1.751413
4.283000	1.751413
4.283500	1.752050
4.284000	1.751095
4.284500	1.751095
4.285000	1.752369
4.285500	1.752369
4.286000	1.752050
4.286500	1.752050
4.287000	1.751732
4.287500	1.751732
4.288000	1.751732
4.288500	1.751413
4.289000	1.750776
4.289500	1.752050
4.290000	1.751732
4.290500	1.750776
4.291000	1.752050
4.291500	1.751413
4.292000	1.752050
4.292500	1.752050
4.293000	1.751413
4.293500	1.751095
4.294000	1.752687
4.294500	1.751413
4.295000	1.751732
4.295500	1.752687
4.296000	1.752050
4.296500	1.751413
4.297000	1.751732
4.297500	1.751095
4.298000	1.751732
4.298500	1.752050
4.299000	1.750776
4.299500	1.751732
4.300000	1.752050
4.300500	1.751732
4.301000	1.750776
4.301500	1.752050
4.302000	1.751732
4.302500	1.752687
4.303000	1.750776
4.303500	1.751413
4.304000	1.752050
4.304500	1.751095
4.305000	1.751095
4.305500	1.752050
4.306000	1.752050
4.306500	1.751732
4.307000	1.752050
4.307500	1.750776
4.308000	1.751413
4.308500	1.752687
4.309000	1.751095
4.309500	1.751095
4.310000	1.752050
4.310500	1.750776
4.311000	1.751732
4.311500	1.751413
4.312000	1.750776
4.312500	1.751732
4.313000	1.752369
4.313500	1.751413
4.314000	1.751413
4.314500	1.751413
4.315000	1.751413
4.315500	1.751732
4.316000	1.752050
4.316500	1.750776
4.317000	1.751732
4.317500	1.752050
4.318000	1.751095
4.318500	1.751732
4.319000	1.752050
4.319500	1.751095
4.320000	1.752369
4.320500	1.751095
4.321000	1.750776
4.321500	1.751413
4.322000	1.750776
4.322500	1.752050
4.323000	1.751413
4.323500	1.751095
4.324000	1.751095
4.324500	1.752050
4.325000	1.752369
4.325500	1.750776
4.326000	1.750776
4.326500	1.750776
4.327000	1.752050
4.327500	1.751413
4.328000	1.750776
4.328500	1.751732
4.329000	1.751732
4.329500	1.751732
4.330000	1.751732
4.330500	1.751095
4.331000	1.751413
4.331500	1.752369
4.332000	1.752050
4.332500	1.751413
4.333000	1.752050
4.333500	1.752050
4.334000	1.751413
4.334500	1.752050
4.335000	1.750776
4.335500	1.751732
4.336000	1.752369
4.336500	1.752050
4.337000	1.750776
4.337500	1.752369
4.338000	1.751413
4.338500	1.751413
4.339000	1.751413
4.339500	1.752050
4.340000	1.751732
4.340500	1.753324
4.341000	1.751413
4.341500	1.752369
4.342000	1.752369
4.342500	1.752050
4.343000	1.751732
4.343500	1.751732
4.344000	1.751413
4.344500	1.752369
4.345000	1.751732
4.345500	1.751413
4.346000	1.752050
4.346500	1.752687
4.347000	1.751413
4.347500	1.751732
4.348000	1.752050
4.348500	1.751095
4.349000	1.750776
4.349500	1.751413
4.350000	1.751732
4.350500	1.751732
4.351000	1.750776
4.351500	1.751095
4.352000	1.752369
4.352500	1.752050
4.353000	1.751095
4.353500	1.752050
4.354000	1.751095
4.354500	1.752369
4.355000	1.752369
4.355500	1.750776
4.356000	1.751413
4.356500	1.752050
4.357000	1.751732
4.357500	1.751413
4.358000	1.751413
4.358500	1.750776
4.359000	1.751413
4.359500	1.751413
4.360000	1.749821
4.360500	1.751732
4.361000	1.752050
4.361500	1.750776
4.362000	1.751413
4.362500	1.751732
4.363000	1.751095
4.363500	1.752050
4.364000	1.751413
4.364500	1.750139
4.365000	1.752050
4.365500	1.751413
4.366000	1.750776
4.366500	1.751732
4.367000	1.751413
4.367500	1.750776
4.368000	1.752369
4.368500	1.751095
4.369000	1.750776
4.369500	1.751095
4.370000	1.750776
4.370500	1.751095
4.371000	1.751413
4.371500	1.750776
4.372000	1.751413
4.372500	1.751413
4.373000	1.750776
4.373500	1.751732
4.374000	1.751095
4.374500	1.750458
4.375000	1.751732
4.375500	1.751413
4.376000	1.750776
4.376500	1.751095
4.377000	1.751095
4.377500	1.751413
4.378000	1.751413
4.378500	1.750458
4.379000	1.751095
4.379500	1.751732
4.380000	1.751095
4.380500	1.750139
4.381000	1.751095
4.381500	1.750776
4.382000	1.751095
4.382500	1.752050
4.383000	1.750776
4.383500	1.750776
4.384000	1.751732
4.384500	1.750776
4.385000	1.750776
4.385500	1.751095
4.386000	1.750776
4.386500	1.751413
4.387000	1.751095
4.387500	1.750776
4.388000	1.750776
4.388500	1.752050
4.389000	1.751095
4.389500	1.750776
4.390000	1.751413
4.390500	1.750776
4.391000	1.751413
4.391500	1.751095
4.392000	1.750458
4.392500	1.751732
4.393000	1.751732
4.393500	1.750776
4.394000	1.751413
4.394500	1.750776
4.395000	1.752050
4.395500	1.751732
4.396000	1.750458
4.396500	1.750776
4.397000	1.751095
4.397500	1.751732
4.398000	1.751095
4.398500	1.751095
4.399000	1.751095
4.399500	1.750776
4.400000	1.751732
4.400500	1.750776
4.401000	1.750776
4.401500	1.751732
4.402000	1.751095
4.402500	1.751095
4.403000	1.750776
4.403500	1.751095
4.404000	1.751095
4.404500	1.751095
4.405000	1.751095
4.405500	1.750776
4.406000	1.750776
4.406500	1.750776
4.407000	1.751413
4.407500	1.750776
4.408000	1.750776
4.408500	1.750458
4.409000	1.751732
4.409500	1.752050
4.410000	1.751095
4.410500	1.749821
4.411000	1.749821
4.411500	1.752050
4.412000	1.751095
4.412500	1.750776
4.413000	1.751095
4.413500	1.751732
4.414000	1.750776
4.414500	1.751095
4.415000	1.750458
4.415500	1.751095
4.416000	1.752050
4.416500	1.750776
4.417000	1.749821
4.417500	1.750776
4.418000	1.750458
4.418500	1.751732
4.419000	1.751732
4.419500	1.750776
4.420000	1.750776
4.420500	1.750458
4.421000	1.750776
4.421500	1.751095
4.422000	1.751413
4.422500	1.750458
4.423000	1.751413
4.423500	1.751095
4.424000	1.749821
4.424500	1.751732
4.425000	1.751413
4.425500	1.750458
4.426000	1.750776
4.426500	1.750776
4.427000	1.750458
4.427500	1.751413
4.428000	1.750776
4.428500	1.751095
4.429000	1.752050
4.429500	1.751413
4.430000	1.751413
4.430500	1.751413
4.431000	1.750776
4.431500	1.750458
4.432000	1.752050
4.432500	1.751413
4.433000	1.750458
4.433500	1.751413
4.434000	1.751095
4.434500	1.751732
4.435000	1.752050
4.435500	1.751413
4.436000	1.749821
4.436500	1.751732
4.437000	1.751413
4.437500	1.750776
4.438000	1.751413
4.438500	1.751095
4.439000	1.752050
4.439500	1.751095
4.440000	1.750776
4.440500	1.751095
4.441000	1.752050
4.441500	1.751732
4.442000	1.751413
4.442500	1.751732
4.443000	1.751413
4.443500	1.751095
4.444000	1.751095
4.444500	1.749821
4.445000	1.752050
4.445500	1.751732
4.446000	1.751413
4.446500	1.751732
4.447000	1.751095
4.447500	1.751413
4.448000	1.752050
4.448500	1.751413
4.449000	1.750776
4.449500	1.751732
4.450000	1.751732
4.450500	1.751095
4.451000	1.752369
4.451500	1.751732
4.452000	1.751413
4.452500	1.751413
4.453000	1.751413
4.453500	1.751732
4.454000	1.751732
4.454500	1.751095
4.455000	1.751732
4.455500	1.752050
4.456000	1.750776
4.456500	1.750776
4.457000	1.752050
4.457500	1.751413
4.458000	1.752050
4.458500	1.751413
4.459000	1.751095
4.459500	1.752050
4.460000	1.751732
4.460500	1.750139
4.461000	1.750776
4.461500	1.751413
4.462000	1.751413
4.462500	1.751732
4.463000	1.750776
4.463500	1.751413
4.464000	1.752050
4.464500	1.751413
4.465000	1.750776
4.465500	1.751413
4.466000	1.750776
4.466500	1.751095
4.467000	1.750776
4.467500	1.750458
4.468000	1.751413
4.468500	1.752050
4.469000	1.750776
4.469500	1.750458
4.470000	1.751095
4.470500	1.750458
4.471000	1.751095
4.471500	1.751095
4.472000	1.750139
4.472500	1.751095
4.473000	1.751732
4.473500	1.750458
4.474000	1.751413
4.474500	1.750776
4.475000	1.751413
4.475500	1.751413
4.476000	1.751095
4.476500	1.750139
4.477000	1.750458
4.477500	1.751732
4.478000	1.750458
4.478500	1.751413
4.479000	1.750139
4.479500	1.749821
4.480000	1.751095
4.480500	1.750776
4.481000	1.750458
4.481500	1.750776
4.482000	1.749821
4.482500	1.750776
4.483000	1.751095
4.483500	1.750139
4.484000	1.750776
4.484500	1.751732
4.485000	1.751095
4.485500	1.749821
4.486000	1.750776
4.486500	1.750776
4.487000	1.751413
4.487500	1.750776
4.488000	1.748866
4.488500	1.750458
4.489000	1.750776
4.489500	1.750776
4.490000	1.751095
4.490500	1.750458
4.491000	1.750458
4.491500	1.753005
4.492000	1.751095
4.492500	1.749821
4.493000	1.750776
4.493500	1.750776
4.494000	1.751732
4.494500	1.750776
4.495000	1.749821
4.495500	1.750776
4.496000	1.751413
4.496500	1.751095
4.497000	1.750458
4.497500	1.750776
4.498000	1.751095
4.498500	1.751732
4.499000	1.750139
4.499500	1.750458
4.500000	1.752050
4.500500	1.751413
4.501000	1.750776
4.501500	1.751413
4.502000	1.750776
4.502500	1.750776
4.503000	1.751095
4.503500	1.751095
4.504000	1.750776
4.504500	1.751732
4.505000	1.751095
4.505500	1.750776
4.506000	1.751095
4.506500	1.751095
4.507000	1.751413
4.507500	1.751732
4.508000	1.751413
4.508500	1.750776
4.509000	1.751413
4.509500	1.750776
4.510000	1.750776
4.510500	1.751413
4.511000	1.750139
4.511500	1.751413
4.512000	1.751732
4.512500	1.752050
4.513000	1.750776
4.513500	1.751413
4.514000	1.750776
4.514500	1.751413
4.515000	1.751095
4.515500	1.750139
4.516000	1.751413
4.516500	1.751732
4.517000	1.750776
4.517500	1.751095
4.518000	1.750776
4.518500	1.751413
4.519000	1.752050
4.519500	1.750458
4.520000	1.749821
4.520500	1.751413
4.521000	1.751095
4.521500	1.751413
4.522000	1.751095
4.522500	1.751732
4.523000	1.751095
4.523500	1.751413
4.524000	1.750458
4.524500	1.750458
4.525000	1.751413
4.525500	1.750776
4.526000	1.750776
4.526500	1.752050
4.527000	1.750458
4.527500	1.750776
4.528000	1.751095
4.528500	1.750776
4.529000	1.750139
4.529500	1.750776
4.530000	1.750776
4.530500	1.751095
4.531000	1.750776
4.531500	1.750458
4.532000	1.751095
4.532500	1.750776
4.533000	1.750458
4.533500	1.752050
4.534000	1.750458
4.534500	1.751095
4.535000	1.751413
4.535500	1.751095
4.536000	1.750458
4.536500	1.750458
4.537000	1.750139
4.537500	1.750776
4.538000	1.750776
4.538500	1.749502
4.539000	1.750139
4.539500	1.751413
4.540000	1.750776
4.540500	1.749821
4.541000	1.749821
4.541500	1.749821
4.542000	1.750776
4.542500	1.750776
4.543000	1.749184
4.543500	1.750458
4.544000	1.751413
4.544500	1.749821
4.545000	1.750458
4.545500	1.749502
4.546000	1.750458
4.546500	1.751095
4.547000	1.750139
4.547500	1.749821
4.548000	1.751413
4.548500	1.751413
4.549000	1.750458
4.549500	1.751095
4.550000	1.750139
4.550500	1.750458
4.551000	1.750776
4.551500	1.750458
4.552000	1.749821
4.552500	1.750458
4.553000	1.750139
4.553500	1.750776
4.554000	1.751095
4.554500	1.750776
4.555000	1.750776
4.555500	1.750776
4.556000	1.750458
4.556500	1.749821
4.557000	1.750776
4.557500	1.750139
4.558000	1.750139
4.558500	1.751095
4.559000	1.750458
4.559500	1.750458
4.560000	1.751413
4.560500	1.751413
4.561000	1.750776
4.561500	1.750776
4.562000	1.750139
4.562500	1.751413
4.563000	1.751095
4.563500	1.749821
4.564000	1.750776
4.564500	1.751413
4.565000	1.751095
4.565500	1.750776
4.566000	1.750776
4.566500	1.750776
4.567000	1.751732
4.567500	1.750776
4.568000	1.750458
4.568500	1.751095
4.569000	1.750776
4.569500	1.750776
4.570000	1.751095
4.570500	1.749821
4.571000	1.750776
4.571500	1.751413
4.572000	1.750776
4.572500	1.750458
4.573000	1.751095
4.573500	1.750139
4.574000	1.751413
4.574500	1.751413
4.575000	1.750458
4.575500	1.751413
4.576000	1.751413
4.576500	1.750139
4.577000	1.751413
4.577500	1.751413
4.578000	1.750776
4.578500	1.751413
4.579000	1.751095
4.579500	1.750458
4.580000	1.750776
4.580500	1.751732
4.581000	1.750776
4.581500	1.751413
4.582000	1.751095
4.582500	1.750458
4.583000	1.751732
4.583500	1.750776
4.584000	1.750776
4.584500	1.751413
4.585000	1.751095
4.585500	1.751095
4.586000	1.751413
4.586500	1.750458
4.587000	1.750776
4.587500	1.751732
4.588000	1.750776
4.588500	1.750776
4.589000	1.751095
4.589500	1.750776
4.590000	1.751095
4.590500	1.751095
4.591000	1.749502
4.591500	1.750776
4.592000	1.752050
4.592500	1.751413
4.593000	1.750776
4.593500	1.750776
4.594000	1.750776
4.594500	1.751413
4.595000	1.750776
4.595500	1.749821
4.596000	1.750776
4.596500	1.751413
4.597000	1.750776
4.597500	1.750458
4.598000	1.750776
4.598500	1.750776
4.599000	1.751732
4.599500	1.751095
4.600000	1.749821
4.600500	1.750776
4.601000	1.750776
4.601500	1.750776
4.602000	1.751095
4.602500	1.750776
4.603000	1.750776
4.603500	1.751413
4.604000	1.750139
4.604500	1.750458
4.605000	1.751413
4.605500	1.750139
4.606000	1.750458
4.606500	1.751095
4.607000	1.750458
4.607500	1.751095
4.608000	1.750776
4.608500	1.751413
4.609000	1.750776
4.609500	1.750776
4.610000	1.750776
4.610500	1.750458
4.611000	1.750458
4.611500	1.751095
4.612000	1.750776
4.612500	1.750776
4.613000	1.750776
4.613500	1.751413
4.614000	1.750776
4.614500	1.750458
4.615000	1.751732
4.615500	1.751413
4.616000	1.750458
4.616500	1.751413
4.617000	1.750776
4.617500	1.751413
4.618000	1.751732
4.618500	1.749821
4.619000	1.751095
4.619500	1.751732
4.620000	1.751095
4.620500	1.750458
4.621000	1.751413
4.621500	1.751095
4.622000	1.750458
4.622500	1.751413
4.623000	1.749502
4.623500	1.751095
4.624000	1.752050
4.624500	1.751413
4.625000	1.751095
4.625500	1.750776
4.626000	1.751732
4.626500	1.750776
4.627000	1.750776
4.627500	1.750139
4.628000	1.751413
4.628500	1.751413
4.629000	1.750458
4.629500	1.751413
4.630000	1.750776
4.630500	1.750458
4.631000	1.751413
4.631500	1.751095
4.632000	1.750139
4.632500	1.751095
4.633000	1.750139
4.633500	1.750776
4.634000	1.751095
4.634500	1.750458
4.635000	1.750139
4.635500	1.751413
4.636000	1.750776
4.636500	1.750458
4.637000	1.750776
4.637500	1.750139
4.638000	1.750458
4.638500	1.751732
4.639000	1.750139
4.639500	1.750776
4.640000	1.750776
4.640500	1.750776
4.641000	1.750776
4.641500	1.750776
4.642000	1.750139
4.642500	1.751095
4.643000	1.750776
4.643500	1.750458
4.644000	1.750776
4.644500	1.750776
4.645000	1.750776
4.645500	1.750139
4.646000	1.750139
4.646500	1.750458
4.647000	1.751095
4.647500	1.750776
4.648000	1.749502
4.648500	1.750458
4.649000	1.751413
4.649500	1.750458
4.650000	1.749502
4.650500	1.750139
4.651000	1.750458
4.651500	1.751413
4.652000	1.749821
4.652500	1.749184
4.653000	1.750458
4.653500	1.750776
4.654000	1.750776
4.654500	1.751095
4.655000	1.750458
4.655500	1.750458
4.656000	1.751413
4.656500	1.749821
4.657000	1.749184
4.657500	1.750776
4.658000	1.749821
4.658500	1.749821
4.659000	1.750458
4.659500	1.750139
4.660000	1.750776
4.660500	1.750776
4.661000	1.748866
4.661500	1.749502
4.662000	1.750776
4.662500	1.750139
4.663000	1.750776
4.663500	1.750458
4.664000	1.749502
4.664500	1.750776
4.665000	1.750458
4.665500	1.749502
4.666000	1.750776
4.666500	1.750139
4.667000	1.749502
4.667500	1.750139
4.668000	1.750776
4.668500	1.749502
4.669000	1.750139
4.669500	1.750776
4.670000	1.749821
4.670500	1.751095
4.671000	1.749502
4.671500	1.749502
4.672000	1.751095
4.672500	1.749821
4.673000	1.749821
4.673500	1.750139
4.674000	1.749821
4.674500	1.749821
4.675000	1.750776
4.675500	1.749502
4.676000	1.749502
4.676500	1.751095
4.677000	1.749821
4.677500	1.749184
4.678000	1.750458
4.678500	1.750139
4.679000	1.750776
4.679500	1.750776
4.680000	1.749821
4.680500	1.750776
4.681000	1.750776
4.681500	1.750458
4.682000	1.750776
4.682500	1.750458
4.683000	1.749821
4.683500	1.751095
4.684000	1.750458
4.684500	1.750776
4.685000	1.751095
4.685500	1.751413
4.686000	1.749502
4.686500	1.750776
4.687000	1.750776
4.687500	1.750458
4.688000	1.750458
4.688500	1.750139
4.689000	1.750139
4.689500	1.750776
4.690000	1.750458
4.690500	1.750776
4.691000	1.751413
4.691500	1.750776
4.692000	1.750139
4.692500	1.752050
4.693000	1.750776
4.693500	1.750139
4.694000	1.750139
4.694500	1.750776
4.695000	1.750776
4.695500	1.751732
4.696000	1.749821
4.696500	1.750776
4.697000	1.750776
4.697500	1.750776
4.698000	1.751095
4.698500	1.750776
4.699000	1.750458
4.699500	1.751413
4.700000	1.750458
4.700500	1.750458
4.701000	1.750776
4.701500	1.750776
4.702000	1.751413
4.702500	1.751095
4.703000	1.749821
4.703500	1.750458
4.704000	1.751732
4.704500	1.750776
4.705000	1.749821
4.705500	1.750776
4.706000	1.751413
4.706500	1.751732
4.707000	1.751413
4.707500	1.750776
4.708000	1.750776
4.708500	1.752050
4.709000	1.750139
4.709500	1.750776
4.710000	1.750776
4.710500	1.750776
4.711000	1.750776
4.711500	1.750776
4.712000	1.750776
4.712500	1.750776
4.713000	1.751095
4.713500	1.750458
4.714000	1.750776
4.714500	1.750776
4.715000	1.750458
4.715500	1.750776
4.716000	1.750776
4.716500	1.750458
4.717000	1.751413
4.717500	1.751095
4.718000	1.750776
4.718500	1.751413
4.719000	1.750458
4.719500	1.750458
4.720000	1.751413
4.720500	1.750776
4.721000	1.749502
4.721500	1.750776
4.722000	1.750458
4.722500	1.750776
4.723000	1.751413
4.723500	1.750139
4.724000	1.751095
4.724500	1.750776
4.725000	1.750776
4.725500	1.749821
4.726000	1.750458
4.726500	1.750776
4.727000	1.752050
4.727500	1.750776
4.728000	1.749184
4.728500	1.750776
4.729000	1.750776
4.729500	1.752050
4.730000	1.750458
4.730500	1.750139
4.731000	1.750458
4.731500	1.751095
4.732000	1.750776
4.732500	1.749821
4.733000	1.750139
4.733500	1.751413
4.734000	1.750139
4.734500	1.750458
4.735000	1.750776
4.735500	1.750776
4.736000	1.751413
4.736500	1.749821
4.737000	1.750458
4.737500	1.750776
4.738000	1.750776
4.738500	1.750458
4.739000	1.750458
4.739500	1.750776
4.740000	1.751095
4.740500	1.751732
4.741000	1.750139
4.741500	1.750139
4.742000	1.751095
4.742500	1.749821
4.743000	1.750776
4.743500	1.751095
4.744000	1.750776
4.744500	1.750776
4.745000	1.751095
4.745500	1.750776
4.746000	1.750776
4.746500	1.751095
4.747000	1.750458
4.747500	1.751732
4.748000	1.751413
4.748500	1.750776
4.749000	1.751732
4.749500	1.751095
4.750000	1.750776
4.750500	1.751413
4.751000	1.750776
4.751500	1.750776
4.752000	1.751413
4.752500	1.750776
4.753000	1.750776
4.753500	1.751095
4.754000	1.751732
4.754500	1.750776
4.755000	1.751413
4.755500	1.750776
4.756000	1.750776
4.756500	1.751413
4.757000	1.750776
4.757500	1.750458
4.758000	1.751095
4.758500	1.750458
4.759000	1.751732
4.759500	1.751413
4.760000	1.750458
4.760500	1.751095
4.761000	1.752369
4.761500	1.750776
4.762000	1.750776
4.762500	1.751095
4.763000	1.751095
4.763500	1.751413
4.764000	1.750776
4.764500	1.750139
4.765000	1.751413
4.765500	1.752050
4.766000	1.750458
4.766500	1.751095
4.767000	1.750776
4.767500	1.750776
4.768000	1.751095
4.768500	1.750458
4.769000	1.750776
4.769500	1.751095
4.770000	1.751095
4.770500	1.750776
4.771000	1.751095
4.771500	1.750776
4.772000	1.750776
4.772500	1.750776
4.773000	1.750776
4.773500	1.750776
4.774000	1.750458
4.774500	1.750776
4.775000	1.751095
4.775500	1.751095
4.776000	1.750458
4.776500	1.751095
4.777000	1.751732
4.777500	1.751413
4.778000	1.750776
4.778500	1.750776
4.779000	1.750458
4.779500	1.751732
4.780000	1.751413
4.780500	1.749821
4.781000	1.750776
4.781500	1.751413
4.782000	1.750776
4.782500	1.750776
4.783000	1.750458
4.783500	1.750776
4.784000	1.751732
4.784500	1.750458
4.785000	1.750139
4.785500	1.751413
4.786000	1.751095
4.786500	1.751413
4.787000	1.751413
4.787500	1.750776
4.788000	1.751413
4.788500	1.752050
4.789000	1.750458
4.789500	1.751095
4.790000	1.751413
4.790500	1.750776
4.791000	1.751732
4.791500	1.751413
4.792000	1.750139
4.792500	1.751413
4.793000	1.752050
4.793500	1.750776
4.794000	1.751732
4.794500	1.751095
4.795000	1.750458
4.795500	1.750776
4.796000	1.751413
4.796500	1.750458
4.797000	1.751413
4.797500	1.752050
4.798000	1.751413
4.798500	1.752687
4.799000	1.751095
4.799500	1.751413
4.800000	1.751732
4.800500	1.752050
4.801000	1.751413
4.801500	1.751413
4.802000	1.751095
4.802500	1.751413
4.803000	1.752050
4.803500	1.750776
4.804000	1.750776
4.804500	1.752050
4.805000	1.751413
4.805500	1.751413
4.806000	1.752050
4.806500	1.751095
4.807000	1.751413
4.807500	1.751413
4.808000	1.750776
4.808500	1.751413
4.809000	1.752050
4.809500	1.750776
4.810000	1.752050
4.810500	1.751095
4.811000	1.751413
4.811500	1.752050
4.812000	1.751413
4.812500	1.750776
4.813000	1.751732
4.813500	1.752050
4.814000	1.751413
4.814500	1.751732
4.815000	1.750776
4.815500	1.751732
4.816000	1.752369
4.816500	1.750776
4.817000	1.751095
4.817500	1.751413
4.818000	1.751413
4.818500	1.752369
4.819000	1.752369
4.819500	1.751413
4.820000	1.751732
4.820500	1.752369
4.821000	1.751413
4.821500	1.751413
4.822000	1.751732
4.822500	1.750776
4.823000	1.751095
4.823500	1.751413
4.824000	1.751413
4.824500	1.751732
4.825000	1.751732
4.825500	1.752050
4.826000	1.751413
4.826500	1.752050
4.827000	1.750776
4.827500	1.751732
4.828000	1.752050
4.828500	1.750776
4.829000	1.752050
4.829500	1.751413
4.830000	1.751413
4.830500	1.751732
4.831000	1.750458
4.831500	1.751413
4.832000	1.751732
4.832500	1.751413
4.833000	1.750776
4.833500	1.751095
4.834000	1.751413
4.834500	1.752050
4.835000	1.752050
4.835500	1.750458
4.836000	1.752050
4.836500	1.752369
4.837000	1.750776
4.837500	1.751095
4.838000	1.752050
4.838500	1.751413
4.839000	1.752050
4.839500	1.751095
4.840000	1.750776
4.840500	1.751732
4.841000	1.751413
4.841500	1.750776
4.842000	1.751095
4.842500	1.750458
4.843000	1.751413
4.843500	1.752050
4.844000	1.751413
4.844500	1.750776
4.845000	1.751413
4.845500	1.751732
4.846000	1.751732
4.846500	1.752050
4.847000	1.751413
4.847500	1.751413
4.848000	1.751732
4.848500	1.751095
4.849000	1.750776
4.849500	1.751732
4.850000	1.751095
4.850500	1.751413
4.851000	1.751732
4.851500	1.750776
4.852000	1.751095
4.852500	1.752050
4.853000	1.750776
4.853500	1.752050
4.854000	1.751095
4.854500	1.750139
4.855000	1.752369
4.855500	1.751732
4.856000	1.750458
4.856500	1.751413
4.857000	1.752050
4.857500	1.752050
4.858000	1.751095
4.858500	1.750776
4.859000	1.751413
4.859500	1.752050
4.860000	1.751732
4.860500	1.750139
4.861000	1.751413
4.861500	1.751732
4.862000	1.750776
4.862500	1.751732
4.863000	1.751095
4.863500	1.750776
4.864000	1.753005
4.864500	1.751095
4.865000	1.750776
4.865500	1.751413
4.866000	1.751413
4.866500	1.751413
4.867000	1.751732
4.867500	1.750776
4.868000	1.752050
4.868500	1.752050
4.869000	1.750776
4.869500	1.751732
4.870000	1.751413
4.870500	1.751095
4.871000	1.752050
4.871500	1.751413
4.872000	1.750776
4.872500	1.751732
4.873000	1.750776
4.873500	1.750776
4.874000	1.752050
4.874500	1.751413
4.875000	1.750776
4.875500	1.751732
4.876000	1.752050
4.876500	1.751413
4.877000	1.751732
4.877500	1.751413
4.878000	1.752050
4.878500	1.752050
4.879000	1.751732
4.879500	1.751095
4.880000	1.752050
4.880500	1.751732
4.881000	1.750776
4.881500	1.751413
4.882000	1.750776
4.882500	1.750776
4.883000	1.751095
4.883500	1.749821
4.884000	1.750776
4.884500	1.751732
4.885000	1.750776
4.885500	1.750776
4.886000	1.750776
4.886500	1.751095
4.887000	1.751413
4.887500	1.751413
4.888000	1.750458
4.888500	1.751732
4.889000	1.752050
4.889500	1.751413
4.890000	1.751413
4.890500	1.751413
4.891000	1.750776
4.891500	1.751732
4.892000	1.750776
4.892500	1.750458
4.893000	1.751732
4.893500	1.751095
4.894000	1.751095
4.894500	1.751413
4.895000	1.751095
4.895500	1.750458
4.896000	1.751095
4.896500	1.750776
4.897000	1.751413
4.897500	1.751732
4.898000	1.750776
4.898500	1.751413
4.899000	1.751413
4.899500	1.751732
4.900000	1.751413
4.900500	1.752050
4.901000	1.750776
4.901500	1.751413
4.902000	1.750776
4.902500	1.750458
4.903000	1.751413
4.903500	1.751413
4.904000	1.749821
4.904500	1.750776
4.905000	1.751413
4.905500	1.751413
4.906000	1.751413
4.906500	1.750458
4.907000	1.750139
4.907500	1.750776
4.908000	1.751413
4.908500	1.750458
4.909000	1.751095
4.909500	1.751095
4.910000	1.751413
4.910500	1.751095
4.911000	1.749821
4.911500	1.750776
4.912000	1.752050
4.912500	1.751413
4.913000	1.750139
4.913500	1.750776
4.914000	1.751413
4.914500	1.751413
4.915000	1.750776
4.915500	1.749821
4.916000	1.751095
4.916500	1.751413
4.917000	1.751413
4.917500	1.751413
4.918000	1.750776
4.918500	1.750458
4.919000	1.751732
4.919500	1.750776
4.920000	1.750139
4.920500	1.750458
4.921000	1.751095
4.921500	1.750458
4.922000	1.751095
4.922500	1.750776
4.923000	1.750776
4.923500	1.750776
4.924000	1.750776
4.924500	1.750458
4.925000	1.751413
4.925500	1.750776
4.926000	1.751095
4.926500	1.752050
4.927000	1.751413
4.927500	1.750458
4.928000	1.751732
4.928500	1.752050
4.929000	1.751095
4.929500	1.751732
4.930000	1.751095
4.930500	1.751095
4.931000	1.751732
4.931500	1.750776
4.932000	1.751095
4.932500	1.752050
4.933000	1.750776
4.933500	1.750776
4.934000	1.750776
4.934500	1.750139
4.935000	1.751732
4.935500	1.750776
4.936000	1.750776
4.936500	1.750776
4.937000	1.751413
4.937500	1.751413
4.938000	1.751732
4.938500	1.751413
4.939000	1.750776
4.939500	1.752050
4.940000	1.751095
4.940500	1.749502
4.941000	1.751413
4.941500	1.751732
4.942000	1.750776
4.942500	1.751413
4.943000	1.750458
4.943500	1.751413
4.944000	1.752050
4.944500	1.750458
4.945000	1.750776
4.945500	1.751413
4.946000	1.751732
4.946500	1.751413
4.947000	1.751732
4.947500	1.751095
4.948000	1.752050
4.948500	1.751413
4.949000	1.751413
4.949500	1.750776
4.950000	1.751413
4.950500	1.751413
4.951000	1.751095
4.951500	1.751732
4.952000	1.750776
4.952500	1.751413
4.953000	1.751413
4.953500	1.751413
4.954000	1.751095
4.954500	1.751095
4.955000	1.750458
4.955500	1.751413
4.956000	1.751413
4.956500	1.751413
4.957000	1.752050
4.957500	1.751732
4.958000	1.750776
4.958500	1.751413
4.959000	1.751413
4.959500	1.749821
4.960000	1.751413
4.960500	1.752050
4.961000	1.750776
4.961500	1.751413
4.962000	1.750776
4.962500	1.751413
4.963000	1.751413
4.963500	1.750776
4.964000	1.750776
4.964500	1.752050
4.965000	1.751095
4.965500	1.751095
4.966000	1.751095
4.966500	1.751095
4.967000	1.752050
4.967500	1.752050
4.968000	1.751413
4.968500	1.751095
4.969000	1.751732
4.969500	1.751095
4.970000	1.752050
4.970500	1.750776
4.971000	1.750776
4.971500	1.751095
4.972000	1.751095
4.972500	1.751413
4.973000	1.751732
4.973500	1.751732
4.974000	1.751413
4.974500	1.752050
4.975000	1.751095
4.975500	1.751095
4.976000	1.751413
4.976500	1.750776
4.977000	1.750776
4.977500	1.751732
4.978000	1.751413
4.978500	1.751413
4.979000	1.752050
4.979500	1.751732
4.980000	1.751095
4.980500	1.751732
4.981000	1.751413
4.981500	1.751732
4.982000	1.751413
4.982500	1.751413
4.983000	1.751413
4.983500	1.751732
4.984000	1.750776
4.984500	1.751732
4.985000	1.752369
4.985500	1.751732
4.986000	1.751413
4.986500	1.751413
4.987000	1.751095
4.987500	1.752369
4.988000	1.751413
4.988500	1.750776
4.989000	1.751095
4.989500	1.751732
4.990000	1.751413
4.990500	1.751413
4.991000	1.751095
4.991500	1.751413
4.992000	1.752687
4.992500	1.751413
4.993000	1.750776
4.993500	1.751413
4.994000	1.752050
4.994500	1.752050
4.995000	1.752050
4.995500	1.751732
4.996000	1.751732
4.996500	1.752687
4.997000	1.751095
4.997500	1.751413
4.998000	1.752050
4.998500	1.751413
4.999000	1.752050
4.999500	1.752050

